onset	duration	trial_type	onset_tone	duration_imprecise	response_time_imprecise	offset_trial	offset_sound_imprecise	onset_iti	offset_iti	onset_iti_imprecise	offset_iti_imprecise	ITI	frequency	key_pressed	confidence	correct	dpos	rule	runs	trial_no	tau_std	lim_std	lim_dev	trigger_time_1	trigger_time_2	trigger_time_3	trigger_time_4	trigger_time_5
68865.551933958	5.35	0	68865.551933958	5.349762124998961	0.4676050830021268	68880.90188475	68870.901696083	68870.90193395801	68880.90193395801	68870.901783416	68880.901593125	10.0	729.46	l	40.0	0	5	1	1	60	40	700	750	68864.853522125	68865.018463333	68865.183515666	68865.363515666	68865.543432666
68865.551933958	5.35	0	68866.301933958	5.349762124998961	0.4676050830021268	68880.90188475	68870.901696083	68870.90193395801	68880.90193395801	68870.901783416	68880.901593125	10.0	740.23	l	40.0	0	5	1	1	60	40	700	750	68864.853522125	68865.018463333	68865.183515666	68865.363515666	68865.543432666
68865.551933958	5.35	0	68867.051933958	5.349762124998961	0.4676050830021268	68880.90188475	68870.901696083	68870.90193395801	68880.90193395801	68870.901783416	68880.901593125	10.0	742.38	l	40.0	0	5	1	1	60	40	700	750	68864.853522125	68865.018463333	68865.183515666	68865.363515666	68865.543432666
68865.551933958	5.35	0	68867.801933958	5.349762124998961	0.4676050830021268	68880.90188475	68870.901696083	68870.90193395801	68880.90193395801	68870.901783416	68880.901593125	10.0	749.23	l	40.0	0	5	1	1	60	40	700	750	68864.853522125	68865.018463333	68865.183515666	68865.363515666	68865.543432666
68865.551933958	5.35	0	68868.551933958	5.349762124998961	0.4676050830021268	68880.90188475	68870.901696083	68870.90193395801	68880.90193395801	68870.901783416	68880.901593125	10.0	763.25	l	40.0	0	5	1	1	60	40	700	750	68864.853522125	68865.018463333	68865.183515666	68865.363515666	68865.543432666
68865.551933958	5.35	1	68869.301933958	5.349762124998961	0.4676050830021268	68880.90188475	68870.901696083	68870.90193395801	68880.90193395801	68870.901783416	68880.901593125	10.0	739.22	l	40.0	0	5	1	1	60	40	700	750	68864.853522125	68865.018463333	68865.183515666	68865.363515666	68865.543432666
68865.551933958	5.35	0	68870.051933958	5.349762124998961	0.4676050830021268	68880.90188475	68870.901696083	68870.90193395801	68880.90193395801	68870.901783416	68880.901593125	10.0	776.95	l	40.0	0	5	1	1	60	40	700	750	68864.853522125	68865.018463333	68865.183515666	68865.363515666	68865.543432666
68865.551933958	5.35	0	68870.801933958	5.349762124998961	0.4676050830021268	68880.90188475	68870.901696083	68870.90193395801	68880.90193395801	68870.901783416	68880.901593125	10.0	759.3	l	40.0	0	5	1	1	60	40	700	750	68864.853522125	68865.018463333	68865.183515666	68865.363515666	68865.543432666
68880.920947166	5.35	0	68880.920947166	5.347238500005915	0.40110491699306294	68896.7708945	68886.268185666	68886.270947166	68896.770947166	68886.268278083	68896.768109125	10.5	758.82	y	20.0	0	5	1	1	61	40	700	750	68864.853522125	68865.018463333	68865.183515666	68865.363515666	68865.543432666
68880.920947166	5.35	0	68881.670947166	5.347238500005915	0.40110491699306294	68896.7708945	68886.268185666	68886.270947166	68896.770947166	68886.268278083	68896.768109125	10.5	752.72	y	20.0	0	5	1	1	61	40	700	750	68864.853522125	68865.018463333	68865.183515666	68865.363515666	68865.543432666
68880.920947166	5.35	0	68882.420947166	5.347238500005915	0.40110491699306294	68896.7708945	68886.268185666	68886.270947166	68896.770947166	68886.268278083	68896.768109125	10.5	752.33	y	20.0	0	5	1	1	61	40	700	750	68864.853522125	68865.018463333	68865.183515666	68865.363515666	68865.543432666
68880.920947166	5.35	0	68883.170947166	5.347238500005915	0.40110491699306294	68896.7708945	68886.268185666	68886.270947166	68896.770947166	68886.268278083	68896.768109125	10.5	741.9	y	20.0	0	5	1	1	61	40	700	750	68864.853522125	68865.018463333	68865.183515666	68865.363515666	68865.543432666
68880.920947166	5.35	0	68883.920947166	5.347238500005915	0.40110491699306294	68896.7708945	68886.268185666	68886.270947166	68896.770947166	68886.268278083	68896.768109125	10.5	766.97	y	20.0	0	5	1	1	61	40	700	750	68864.853522125	68865.018463333	68865.183515666	68865.363515666	68865.543432666
68880.920947166	5.35	1	68884.670947166	5.347238500005915	0.40110491699306294	68896.7708945	68886.268185666	68886.270947166	68896.770947166	68886.268278083	68896.768109125	10.5	772.48	y	20.0	0	5	1	1	61	40	700	750	68864.853522125	68865.018463333	68865.183515666	68865.363515666	68865.543432666
68880.920947166	5.35	0	68885.420947166	5.347238500005915	0.40110491699306294	68896.7708945	68886.268185666	68886.270947166	68896.770947166	68886.268278083	68896.768109125	10.5	756.01	y	20.0	0	5	1	1	61	40	700	750	68864.853522125	68865.018463333	68865.183515666	68865.363515666	68865.543432666
68880.920947166	5.35	0	68886.170947166	5.347238500005915	0.40110491699306294	68896.7708945	68886.268185666	68886.270947166	68896.770947166	68886.268278083	68896.768109125	10.5	743.79	y	20.0	0	5	1	1	61	40	700	750	68864.853522125	68865.018463333	68865.183515666	68865.363515666	68865.543432666
68896.787456916	5.35	0	68896.787456916	5.347357916994952		68913.13739999999	68902.134814833	68902.13745691601	68913.13745691601	68902.134916375	68913.1347865	11.0	743.78			3	4	1	1	62	40	700	750	68864.853522125	68865.018463333	68865.183515666	68865.363515666	68865.543432666
68896.787456916	5.35	0	68897.537456916	5.347357916994952		68913.13739999999	68902.134814833	68902.13745691601	68913.13745691601	68902.134916375	68913.1347865	11.0	784.71			3	4	1	1	62	40	700	750	68864.853522125	68865.018463333	68865.183515666	68865.363515666	68865.543432666
68896.787456916	5.35	0	68898.287456916	5.347357916994952		68913.13739999999	68902.134814833	68902.13745691601	68913.13745691601	68902.134916375	68913.1347865	11.0	785.07			3	4	1	1	62	40	700	750	68864.853522125	68865.018463333	68865.183515666	68865.363515666	68865.543432666
68896.787456916	5.35	0	68899.037456916	5.347357916994952		68913.13739999999	68902.134814833	68902.13745691601	68913.13745691601	68902.134916375	68913.1347865	11.0	786.93			3	4	1	1	62	40	700	750	68864.853522125	68865.018463333	68865.183515666	68865.363515666	68865.543432666
68896.787456916	5.35	1	68899.787456916	5.347357916994952		68913.13739999999	68902.134814833	68902.13745691601	68913.13745691601	68902.134916375	68913.1347865	11.0	753.52			3	4	1	1	62	40	700	750	68864.853522125	68865.018463333	68865.183515666	68865.363515666	68865.543432666
68896.787456916	5.35	0	68900.537456916	5.347357916994952		68913.13739999999	68902.134814833	68902.13745691601	68913.13745691601	68902.134916375	68913.1347865	11.0	794.23			3	4	1	1	62	40	700	750	68864.853522125	68865.018463333	68865.183515666	68865.363515666	68865.543432666
68896.787456916	5.35	0	68901.287456916	5.347357916994952		68913.13739999999	68902.134814833	68902.13745691601	68913.13745691601	68902.134916375	68913.1347865	11.0	802.35			3	4	1	1	62	40	700	750	68864.853522125	68865.018463333	68865.183515666	68865.363515666	68865.543432666
68896.787456916	5.35	0	68902.037456916	5.347357916994952		68913.13739999999	68902.134814833	68902.13745691601	68913.13745691601	68902.134916375	68913.1347865	11.0	800.53			3	4	1	1	62	40	700	750	68864.853522125	68865.018463333	68865.183515666	68865.363515666	68865.543432666
68913.15427495801	5.35	0	68913.15427495801	5.347205582991592		68928.50421862499	68918.501480541	68918.50427495802	68928.50427495802	68918.501573166	68928.50142475	10.0	798.88			3	4	1	1	63	40	700	750	68864.853522125	68865.018463333	68865.183515666	68865.363515666	68865.543432666
68913.15427495801	5.35	0	68913.90427495801	5.347205582991592		68928.50421862499	68918.501480541	68918.50427495802	68928.50427495802	68918.501573166	68928.50142475	10.0	797.7			3	4	1	1	63	40	700	750	68864.853522125	68865.018463333	68865.183515666	68865.363515666	68865.543432666
68913.15427495801	5.35	0	68914.65427495801	5.347205582991592		68928.50421862499	68918.501480541	68918.50427495802	68928.50427495802	68918.501573166	68928.50142475	10.0	785.34			3	4	1	1	63	40	700	750	68864.853522125	68865.018463333	68865.183515666	68865.363515666	68865.543432666
68913.15427495801	5.35	0	68915.40427495801	5.347205582991592		68928.50421862499	68918.501480541	68918.50427495802	68928.50427495802	68918.501573166	68928.50142475	10.0	781.82			3	4	1	1	63	40	700	750	68864.853522125	68865.018463333	68865.183515666	68865.363515666	68865.543432666
68913.15427495801	5.35	1	68916.15427495801	5.347205582991592		68928.50421862499	68918.501480541	68918.50427495802	68928.50427495802	68918.501573166	68928.50142475	10.0	745.95			3	4	1	1	63	40	700	750	68864.853522125	68865.018463333	68865.183515666	68865.363515666	68865.543432666
68913.15427495801	5.35	0	68916.90427495801	5.347205582991592		68928.50421862499	68918.501480541	68918.50427495802	68928.50427495802	68918.501573166	68928.50142475	10.0	755.76			3	4	1	1	63	40	700	750	68864.853522125	68865.018463333	68865.183515666	68865.363515666	68865.543432666
68913.15427495801	5.35	0	68917.65427495801	5.347205582991592		68928.50421862499	68918.501480541	68918.50427495802	68928.50427495802	68918.501573166	68928.50142475	10.0	761.24			3	4	1	1	63	40	700	750	68864.853522125	68865.018463333	68865.183515666	68865.363515666	68865.543432666
68913.15427495801	5.35	0	68918.40427495801	5.347205582991592		68928.50421862499	68918.501480541	68918.50427495802	68928.50427495802	68918.501573166	68928.50142475	10.0	765.96			3	4	1	1	63	40	700	750	68864.853522125	68865.018463333	68865.183515666	68865.363515666	68865.543432666
68928.520781083	5.35	0	68928.520781083	5.34731358299905		68943.87072291599	68933.868094666	68933.87078108301	68943.87078108301	68933.86818625	68943.868009666	10.0	791.39			3	4	1	1	64	40	700	750	68864.853522125	68865.018463333	68865.183515666	68865.363515666	68865.543432666
68928.520781083	5.35	0	68929.270781083	5.34731358299905		68943.87072291599	68933.868094666	68933.87078108301	68943.87078108301	68933.86818625	68943.868009666	10.0	769.39			3	4	1	1	64	40	700	750	68864.853522125	68865.018463333	68865.183515666	68865.363515666	68865.543432666
68928.520781083	5.35	0	68930.020781083	5.34731358299905		68943.87072291599	68933.868094666	68933.87078108301	68943.87078108301	68933.86818625	68943.868009666	10.0	761.84			3	4	1	1	64	40	700	750	68864.853522125	68865.018463333	68865.183515666	68865.363515666	68865.543432666
68928.520781083	5.35	0	68930.770781083	5.34731358299905		68943.87072291599	68933.868094666	68933.87078108301	68943.87078108301	68933.86818625	68943.868009666	10.0	745.97			3	4	1	1	64	40	700	750	68864.853522125	68865.018463333	68865.183515666	68865.363515666	68865.543432666
68928.520781083	5.35	1	68931.520781083	5.34731358299905		68943.87072291599	68933.868094666	68933.87078108301	68943.87078108301	68933.86818625	68943.868009666	10.0	716.41			3	4	1	1	64	40	700	750	68864.853522125	68865.018463333	68865.183515666	68865.363515666	68865.543432666
68928.520781083	5.35	0	68932.270781083	5.34731358299905		68943.87072291599	68933.868094666	68933.87078108301	68943.87078108301	68933.86818625	68943.868009666	10.0	734.34			3	4	1	1	64	40	700	750	68864.853522125	68865.018463333	68865.183515666	68865.363515666	68865.543432666
68928.520781083	5.35	0	68933.020781083	5.34731358299905		68943.87072291599	68933.868094666	68933.87078108301	68943.87078108301	68933.86818625	68943.868009666	10.0	714.85			3	4	1	1	64	40	700	750	68864.853522125	68865.018463333	68865.183515666	68865.363515666	68865.543432666
68928.520781083	5.35	0	68933.770781083	5.34731358299905		68943.87072291599	68933.868094666	68933.87078108301	68943.87078108301	68933.86818625	68943.868009666	10.0	742.24			3	4	1	1	64	40	700	750	68864.853522125	68865.018463333	68865.183515666	68865.363515666	68865.543432666
68943.887597833	5.35	0	68943.887597833	5.3498563329922035		68960.737533291	68949.237454166	68949.23759783301	68960.73759783301	68949.237543416	68960.736986541	11.5	736.06			3	4	1	1	65	40	700	750	68864.853522125	68865.018463333	68865.183515666	68865.363515666	68865.543432666
68943.887597833	5.35	0	68944.637597833	5.3498563329922035		68960.737533291	68949.237454166	68949.23759783301	68960.73759783301	68949.237543416	68960.736986541	11.5	727.22			3	4	1	1	65	40	700	750	68864.853522125	68865.018463333	68865.183515666	68865.363515666	68865.543432666
68943.887597833	5.35	0	68945.387597833	5.3498563329922035		68960.737533291	68949.237454166	68949.23759783301	68960.73759783301	68949.237543416	68960.736986541	11.5	714.09			3	4	1	1	65	40	700	750	68864.853522125	68865.018463333	68865.183515666	68865.363515666	68865.543432666
68943.887597833	5.35	0	68946.137597833	5.3498563329922035		68960.737533291	68949.237454166	68949.23759783301	68960.73759783301	68949.237543416	68960.736986541	11.5	720.2			3	4	1	1	65	40	700	750	68864.853522125	68865.018463333	68865.183515666	68865.363515666	68865.543432666
68943.887597833	5.35	1	68946.887597833	5.3498563329922035		68960.737533291	68949.237454166	68949.23759783301	68960.73759783301	68949.237543416	68960.736986541	11.5	717.31			3	4	1	1	65	40	700	750	68864.853522125	68865.018463333	68865.183515666	68865.363515666	68865.543432666
68943.887597833	5.35	0	68947.637597833	5.3498563329922035		68960.737533291	68949.237454166	68949.23759783301	68960.73759783301	68949.237543416	68960.736986541	11.5	707.92			3	4	1	1	65	40	700	750	68864.853522125	68865.018463333	68865.183515666	68865.363515666	68865.543432666
68943.887597833	5.35	0	68948.387597833	5.3498563329922035		68960.737533291	68949.237454166	68949.23759783301	68960.73759783301	68949.237543416	68960.736986541	11.5	682.58			3	4	1	1	65	40	700	750	68864.853522125	68865.018463333	68865.183515666	68865.363515666	68865.543432666
68943.887597833	5.35	0	68949.137597833	5.3498563329922035		68960.737533291	68949.237454166	68949.23759783301	68960.73759783301	68949.237543416	68960.736986541	11.5	671.28			3	4	1	1	65	40	700	750	68864.853522125	68865.018463333	68865.183515666	68865.363515666	68865.543432666
68960.756908208	5.35	0	68960.756908208	5.345126874992275		68974.606852583	68966.102035083	68966.106908208	68974.606908208	68966.102103875	68974.605115125	8.5	673.97			3	5	1	1	66	40	700	750	68864.853522125	68865.018463333	68865.183515666	68865.363515666	68865.543432666
68960.756908208	5.35	0	68961.506908208	5.345126874992275		68974.606852583	68966.102035083	68966.106908208	68974.606908208	68966.102103875	68974.605115125	8.5	670.68			3	5	1	1	66	40	700	750	68864.853522125	68865.018463333	68865.183515666	68865.363515666	68865.543432666
68960.756908208	5.35	0	68962.256908208	5.345126874992275		68974.606852583	68966.102035083	68966.106908208	68974.606908208	68966.102103875	68974.605115125	8.5	676.68			3	5	1	1	66	40	700	750	68864.853522125	68865.018463333	68865.183515666	68865.363515666	68865.543432666
68960.756908208	5.35	0	68963.006908208	5.345126874992275		68974.606852583	68966.102035083	68966.106908208	68974.606908208	68966.102103875	68974.605115125	8.5	695.37			3	5	1	1	66	40	700	750	68864.853522125	68865.018463333	68865.183515666	68865.363515666	68865.543432666
68960.756908208	5.35	0	68963.756908208	5.345126874992275		68974.606852583	68966.102035083	68966.106908208	68974.606908208	68966.102103875	68974.605115125	8.5	683.96			3	5	1	1	66	40	700	750	68864.853522125	68865.018463333	68865.183515666	68865.363515666	68865.543432666
68960.756908208	5.35	1	68964.506908208	5.345126874992275		68974.606852583	68966.102035083	68966.106908208	68974.606908208	68966.102103875	68974.605115125	8.5	723.88			3	5	1	1	66	40	700	750	68864.853522125	68865.018463333	68865.183515666	68865.363515666	68865.543432666
68960.756908208	5.35	0	68965.256908208	5.345126874992275		68974.606852583	68966.102035083	68966.106908208	68974.606908208	68966.102103875	68974.605115125	8.5	681.1			3	5	1	1	66	40	700	750	68864.853522125	68865.018463333	68865.183515666	68865.363515666	68865.543432666
68960.756908208	5.35	0	68966.006908208	5.345126874992275		68974.606852583	68966.102035083	68966.106908208	68974.606908208	68966.102103875	68974.605115125	8.5	712.84			3	5	1	1	66	40	700	750	68864.853522125	68865.018463333	68865.183515666	68865.363515666	68865.543432666
68974.622165041	5.35	0	68974.622165041	5.348863292005262		68989.472105916	68979.971028333	68979.972165041	68989.472165041	68979.971113875	68989.468724	9.5	680.15			3	3	0	1	67	40	700	750	68864.853522125	68865.018463333	68865.183515666	68865.363515666	68865.543432666
68974.622165041	5.35	0	68975.372165041	5.348863292005262		68989.472105916	68979.971028333	68979.972165041	68989.472165041	68979.971113875	68989.468724	9.5	695.36			3	3	0	1	67	40	700	750	68864.853522125	68865.018463333	68865.183515666	68865.363515666	68865.543432666
68974.622165041	5.35	0	68976.122165041	5.348863292005262		68989.472105916	68979.971028333	68979.972165041	68989.472165041	68979.971113875	68989.468724	9.5	678.26			3	3	0	1	67	40	700	750	68864.853522125	68865.018463333	68865.183515666	68865.363515666	68865.543432666
68974.622165041	5.35	1	68976.872165041	5.348863292005262		68989.472105916	68979.971028333	68979.972165041	68989.472165041	68979.971113875	68989.468724	9.5	724.96			3	3	0	1	67	40	700	750	68864.853522125	68865.018463333	68865.183515666	68865.363515666	68865.543432666
68974.622165041	5.35	0	68977.622165041	5.348863292005262		68989.472105916	68979.971028333	68979.972165041	68989.472165041	68979.971113875	68989.468724	9.5	683.72			3	3	0	1	67	40	700	750	68864.853522125	68865.018463333	68865.183515666	68865.363515666	68865.543432666
68974.622165041	5.35	0	68978.372165041	5.348863292005262		68989.472105916	68979.971028333	68979.972165041	68989.472165041	68979.971113875	68989.468724	9.5	705.29			3	3	0	1	67	40	700	750	68864.853522125	68865.018463333	68865.183515666	68865.363515666	68865.543432666
68974.622165041	5.35	0	68979.122165041	5.348863292005262		68989.472105916	68979.971028333	68979.972165041	68989.472165041	68979.971113875	68989.468724	9.5	676.38			3	3	0	1	67	40	700	750	68864.853522125	68865.018463333	68865.183515666	68865.363515666	68865.543432666
68974.622165041	5.35	0	68979.872165041	5.348863292005262		68989.472105916	68979.971028333	68979.972165041	68989.472165041	68979.971113875	68989.468724	9.5	691.16			3	3	0	1	67	40	700	750	68864.853522125	68865.018463333	68865.183515666	68865.363515666	68865.543432666
68989.48991833301	5.35	0	68989.48991833301	5.345456457987893		69004.839856291	68994.835374791	68994.83991833302	69004.83991833302	68994.835442625	69004.837128125	10.0	690.3			3	2	0	1	68	40	700	750	68864.853522125	68865.018463333	68865.183515666	68865.363515666	68865.543432666
68989.48991833301	5.35	0	68990.23991833301	5.345456457987893		69004.839856291	68994.835374791	68994.83991833302	69004.83991833302	68994.835442625	69004.837128125	10.0	700.52			3	2	0	1	68	40	700	750	68864.853522125	68865.018463333	68865.183515666	68865.363515666	68865.543432666
68989.48991833301	5.35	1	68990.98991833301	5.345456457987893		69004.839856291	68994.835374791	68994.83991833302	69004.83991833302	68994.835442625	69004.837128125	10.0	732.87			3	2	0	1	68	40	700	750	68864.853522125	68865.018463333	68865.183515666	68865.363515666	68865.543432666
68989.48991833301	5.35	0	68991.73991833301	5.345456457987893		69004.839856291	68994.835374791	68994.83991833302	69004.83991833302	68994.835442625	69004.837128125	10.0	680.94			3	2	0	1	68	40	700	750	68864.853522125	68865.018463333	68865.183515666	68865.363515666	68865.543432666
68989.48991833301	5.35	0	68992.48991833301	5.345456457987893		69004.839856291	68994.835374791	68994.83991833302	69004.83991833302	68994.835442625	69004.837128125	10.0	694.94			3	2	0	1	68	40	700	750	68864.853522125	68865.018463333	68865.183515666	68865.363515666	68865.543432666
68989.48991833301	5.35	0	68993.23991833301	5.345456457987893		69004.839856291	68994.835374791	68994.83991833302	69004.83991833302	68994.835442625	69004.837128125	10.0	709.3			3	2	0	1	68	40	700	750	68864.853522125	68865.018463333	68865.183515666	68865.363515666	68865.543432666
68989.48991833301	5.35	0	68993.98991833301	5.345456457987893		69004.839856291	68994.835374791	68994.83991833302	69004.83991833302	68994.835442625	69004.837128125	10.0	718.94			3	2	0	1	68	40	700	750	68864.853522125	68865.018463333	68865.183515666	68865.363515666	68865.543432666
68989.48991833301	5.35	0	68994.73991833301	5.345456457987893		69004.839856291	68994.835374791	68994.83991833302	69004.83991833302	68994.835442625	69004.837128125	10.0	706.42			3	2	0	1	68	40	700	750	68864.853522125	68865.018463333	68865.183515666	68865.363515666	68865.543432666
69004.85485625001	5.35	0	69004.85485625001	5.348720124995452		69017.70480325	69010.203576375	69010.20485625001	69017.70485625001	69010.203663875	69017.703986	7.5	702.05			3	3	0	1	69	40	700	750	68864.853522125	68865.018463333	68865.183515666	68865.363515666	68865.543432666
69004.85485625001	5.35	0	69005.60485625001	5.348720124995452		69017.70480325	69010.203576375	69010.20485625001	69017.70485625001	69010.203663875	69017.703986	7.5	659.31			3	3	0	1	69	40	700	750	68864.853522125	68865.018463333	68865.183515666	68865.363515666	68865.543432666
69004.85485625001	5.35	0	69006.35485625001	5.348720124995452		69017.70480325	69010.203576375	69010.20485625001	69017.70485625001	69010.203663875	69017.703986	7.5	671.48			3	3	0	1	69	40	700	750	68864.853522125	68865.018463333	68865.183515666	68865.363515666	68865.543432666
69004.85485625001	5.35	1	69007.10485625001	5.348720124995452		69017.70480325	69010.203576375	69010.20485625001	69017.70485625001	69010.203663875	69017.703986	7.5	723.4			3	3	0	1	69	40	700	750	68864.853522125	68865.018463333	68865.183515666	68865.363515666	68865.543432666
69004.85485625001	5.35	0	69007.85485625001	5.348720124995452		69017.70480325	69010.203576375	69010.20485625001	69017.70485625001	69010.203663875	69017.703986	7.5	679.97			3	3	0	1	69	40	700	750	68864.853522125	68865.018463333	68865.183515666	68865.363515666	68865.543432666
69004.85485625001	5.35	0	69008.60485625001	5.348720124995452		69017.70480325	69010.203576375	69010.20485625001	69017.70485625001	69010.203663875	69017.703986	7.5	690.54			3	3	0	1	69	40	700	750	68864.853522125	68865.018463333	68865.183515666	68865.363515666	68865.543432666
69004.85485625001	5.35	0	69009.35485625001	5.348720124995452		69017.70480325	69010.203576375	69010.20485625001	69017.70485625001	69010.203663875	69017.703986	7.5	695.8			3	3	0	1	69	40	700	750	68864.853522125	68865.018463333	68865.183515666	68865.363515666	68865.543432666
69004.85485625001	5.35	0	69010.10485625001	5.348720124995452		69017.70480325	69010.203576375	69010.20485625001	69017.70485625001	69010.203663875	69017.703986	7.5	676.63			3	3	0	1	69	40	700	750	68864.853522125	68865.018463333	68865.183515666	68865.363515666	68865.543432666
69017.721365666	5.35	0	69017.721365666	5.349585249990923		69032.071305875	69023.070950916	69023.07136566601	69032.07136566601	69023.071061625	69032.070469666	9.0	655.06			3	4	0	1	70	40	700	750	68864.853522125	68865.018463333	68865.183515666	68865.363515666	68865.543432666
69017.721365666	5.35	0	69018.471365666	5.349585249990923		69032.071305875	69023.070950916	69023.07136566601	69032.07136566601	69023.071061625	69032.070469666	9.0	687.47			3	4	0	1	70	40	700	750	68864.853522125	68865.018463333	68865.183515666	68865.363515666	68865.543432666
69017.721365666	5.35	0	69019.221365666	5.349585249990923		69032.071305875	69023.070950916	69023.07136566601	69032.07136566601	69023.071061625	69032.070469666	9.0	693.58			3	4	0	1	70	40	700	750	68864.853522125	68865.018463333	68865.183515666	68865.363515666	68865.543432666
69017.721365666	5.35	0	69019.971365666	5.349585249990923		69032.071305875	69023.070950916	69023.07136566601	69032.07136566601	69023.071061625	69032.070469666	9.0	704.43			3	4	0	1	70	40	700	750	68864.853522125	68865.018463333	68865.183515666	68865.363515666	68865.543432666
69017.721365666	5.35	1	69020.721365666	5.349585249990923		69032.071305875	69023.070950916	69023.07136566601	69032.07136566601	69023.071061625	69032.070469666	9.0	736.4			3	4	0	1	70	40	700	750	68864.853522125	68865.018463333	68865.183515666	68865.363515666	68865.543432666
69017.721365666	5.35	0	69021.471365666	5.349585249990923		69032.071305875	69023.070950916	69023.07136566601	69032.07136566601	69023.071061625	69032.070469666	9.0	674.62			3	4	0	1	70	40	700	750	68864.853522125	68865.018463333	68865.183515666	68865.363515666	68865.543432666
69017.721365666	5.35	0	69022.221365666	5.349585249990923		69032.071305875	69023.070950916	69023.07136566601	69032.07136566601	69023.071061625	69032.070469666	9.0	702.93			3	4	0	1	70	40	700	750	68864.853522125	68865.018463333	68865.183515666	68865.363515666	68865.543432666
69017.721365666	5.35	0	69022.971365666	5.349585249990923		69032.071305875	69023.070950916	69023.07136566601	69032.07136566601	69023.071061625	69032.070469666	9.0	689.89			3	4	0	1	70	40	700	750	68864.853522125	68865.018463333	68865.183515666	68865.363515666	68865.543432666
69032.090055791	5.35	0	69032.090055791	5.347023499998613		69047.93999099999	69037.437079291	69037.44005579101	69047.94005579101	69037.437174041	69047.93509325	10.5	692.16			3	2	0	1	71	40	700	750	68864.853522125	68865.018463333	68865.183515666	68865.363515666	68865.543432666
69032.090055791	5.35	0	69032.840055791	5.347023499998613		69047.93999099999	69037.437079291	69037.44005579101	69047.94005579101	69037.437174041	69047.93509325	10.5	699.21			3	2	0	1	71	40	700	750	68864.853522125	68865.018463333	68865.183515666	68865.363515666	68865.543432666
69032.090055791	5.35	1	69033.590055791	5.347023499998613		69047.93999099999	69037.437079291	69037.44005579101	69047.94005579101	69037.437174041	69047.93509325	10.5	724.96			3	2	0	1	71	40	700	750	68864.853522125	68865.018463333	68865.183515666	68865.363515666	68865.543432666
69032.090055791	5.35	0	69034.340055791	5.347023499998613		69047.93999099999	69037.437079291	69037.44005579101	69047.94005579101	69037.437174041	69047.93509325	10.5	710.85			3	2	0	1	71	40	700	750	68864.853522125	68865.018463333	68865.183515666	68865.363515666	68865.543432666
69032.090055791	5.35	0	69035.090055791	5.347023499998613		69047.93999099999	69037.437079291	69037.44005579101	69047.94005579101	69037.437174041	69047.93509325	10.5	689.01			3	2	0	1	71	40	700	750	68864.853522125	68865.018463333	68865.183515666	68865.363515666	68865.543432666
69032.090055791	5.35	0	69035.840055791	5.347023499998613		69047.93999099999	69037.437079291	69037.44005579101	69047.94005579101	69037.437174041	69047.93509325	10.5	702.86			3	2	0	1	71	40	700	750	68864.853522125	68865.018463333	68865.183515666	68865.363515666	68865.543432666
69032.090055791	5.35	0	69036.590055791	5.347023499998613		69047.93999099999	69037.437079291	69037.44005579101	69047.94005579101	69037.437174041	69047.93509325	10.5	683.39			3	2	0	1	71	40	700	750	68864.853522125	68865.018463333	68865.183515666	68865.363515666	68865.543432666
69032.090055791	5.35	0	69037.340055791	5.347023499998613		69047.93999099999	69037.437079291	69037.44005579101	69047.94005579101	69037.437174041	69047.93509325	10.5	688.27			3	2	0	1	71	40	700	750	68864.853522125	68865.018463333	68865.183515666	68865.363515666	68865.543432666
69047.956553416	5.35	0	69047.956553416	5.346594374990673		69064.806483583	69053.303147791	69053.30655341601	69064.80655341601	69053.303225833	69064.801708	11.5	688.2			4	0	2	1	72	40	700	750	68864.853522125	68865.018463333	68865.183515666	68865.363515666	68865.543432666
69047.956553416	5.35	0	69048.706553416	5.346594374990673		69064.806483583	69053.303147791	69053.30655341601	69064.80655341601	69053.303225833	69064.801708	11.5	672.18			4	0	2	1	72	40	700	750	68864.853522125	68865.018463333	68865.183515666	68865.363515666	68865.543432666
69047.956553416	5.35	0	69049.456553416	5.346594374990673		69064.806483583	69053.303147791	69053.30655341601	69064.80655341601	69053.303225833	69064.801708	11.5	651.48			4	0	2	1	72	40	700	750	68864.853522125	68865.018463333	68865.183515666	68865.363515666	68865.543432666
69047.956553416	5.35	0	69050.206553416	5.346594374990673		69064.806483583	69053.303147791	69053.30655341601	69064.80655341601	69053.303225833	69064.801708	11.5	693.77			4	0	2	1	72	40	700	750	68864.853522125	68865.018463333	68865.183515666	68865.363515666	68865.543432666
69047.956553416	5.35	0	69050.956553416	5.346594374990673		69064.806483583	69053.303147791	69053.30655341601	69064.80655341601	69053.303225833	69064.801708	11.5	671.25			4	0	2	1	72	40	700	750	68864.853522125	68865.018463333	68865.183515666	68865.363515666	68865.543432666
69047.956553416	5.35	0	69051.706553416	5.346594374990673		69064.806483583	69053.303147791	69053.30655341601	69064.80655341601	69053.303225833	69064.801708	11.5	697.59			4	0	2	1	72	40	700	750	68864.853522125	68865.018463333	68865.183515666	68865.363515666	68865.543432666
69047.956553416	5.35	0	69052.456553416	5.346594374990673		69064.806483583	69053.303147791	69053.30655341601	69064.80655341601	69053.303225833	69064.801708	11.5	688.3			4	0	2	1	72	40	700	750	68864.853522125	68865.018463333	68865.183515666	68865.363515666	68865.543432666
69047.956553416	5.35	0	69053.206553416	5.346594374990673		69064.806483583	69053.303147791	69053.30655341601	69064.80655341601	69053.303225833	69064.801708	11.5	699.01			4	0	2	1	72	40	700	750	68864.853522125	68865.018463333	68865.183515666	68865.363515666	68865.543432666
69064.82085850001	5.35	0	69064.82085850001	5.349180040982901		69079.17079999999	69070.170038541	69070.17085850002	69079.17085850002	69070.170126958	69079.170062833	9.0	703.36			3	6	1	1	73	40	700	750	68864.853522125	68865.018463333	68865.183515666	68865.363515666	68865.543432666
69064.82085850001	5.35	0	69065.57085850001	5.349180040982901		69079.17079999999	69070.170038541	69070.17085850002	69079.17085850002	69070.170126958	69079.170062833	9.0	710.3			3	6	1	1	73	40	700	750	68864.853522125	68865.018463333	68865.183515666	68865.363515666	68865.543432666
69064.82085850001	5.35	0	69066.32085850001	5.349180040982901		69079.17079999999	69070.170038541	69070.17085850002	69079.17085850002	69070.170126958	69079.170062833	9.0	667.07			3	6	1	1	73	40	700	750	68864.853522125	68865.018463333	68865.183515666	68865.363515666	68865.543432666
69064.82085850001	5.35	0	69067.07085850001	5.349180040982901		69079.17079999999	69070.170038541	69070.17085850002	69079.17085850002	69070.170126958	69079.170062833	9.0	660.35			3	6	1	1	73	40	700	750	68864.853522125	68865.018463333	68865.183515666	68865.363515666	68865.543432666
69064.82085850001	5.35	0	69067.82085850001	5.349180040982901		69079.17079999999	69070.170038541	69070.17085850002	69079.17085850002	69070.170126958	69079.170062833	9.0	640.06			3	6	1	1	73	40	700	750	68864.853522125	68865.018463333	68865.183515666	68865.363515666	68865.543432666
69064.82085850001	5.35	0	69068.57085850001	5.349180040982901		69079.17079999999	69070.170038541	69070.17085850002	69079.17085850002	69070.170126958	69079.170062833	9.0	656.19			3	6	1	1	73	40	700	750	68864.853522125	68865.018463333	68865.183515666	68865.363515666	68865.543432666
69064.82085850001	5.35	1	69069.32085850001	5.349180040982901		69079.17079999999	69070.170038541	69070.17085850002	69079.17085850002	69070.170126958	69079.170062833	9.0	738.61			3	6	1	1	73	40	700	750	68864.853522125	68865.018463333	68865.183515666	68865.363515666	68865.543432666
69064.82085850001	5.35	0	69070.07085850001	5.349180040982901		69079.17079999999	69070.170038541	69070.17085850002	69079.17085850002	69070.170126958	69079.170062833	9.0	651.76			3	6	1	1	73	40	700	750	68864.853522125	68865.018463333	68865.183515666	68865.363515666	68865.543432666
69079.190174916	5.35	0	69079.190174916	5.3469780839950545		69093.540115708	69084.537153	69084.54017491601	69093.54017491601	69084.537244666	69093.538067291	9.0	682.55			3	3	0	1	74	40	700	750	68864.853522125	68865.018463333	68865.183515666	68865.363515666	68865.543432666
69079.190174916	5.35	0	69079.940174916	5.3469780839950545		69093.540115708	69084.537153	69084.54017491601	69093.54017491601	69084.537244666	69093.538067291	9.0	661.56			3	3	0	1	74	40	700	750	68864.853522125	68865.018463333	68865.183515666	68865.363515666	68865.543432666
69079.190174916	5.35	0	69080.690174916	5.3469780839950545		69093.540115708	69084.537153	69084.54017491601	69093.54017491601	69084.537244666	69093.538067291	9.0	636.44			3	3	0	1	74	40	700	750	68864.853522125	68865.018463333	68865.183515666	68865.363515666	68865.543432666
69079.190174916	5.35	1	69081.440174916	5.3469780839950545		69093.540115708	69084.537153	69084.54017491601	69093.54017491601	69084.537244666	69093.538067291	9.0	723.9			3	3	0	1	74	40	700	750	68864.853522125	68865.018463333	68865.183515666	68865.363515666	68865.543432666
69079.190174916	5.35	0	69082.190174916	5.3469780839950545		69093.540115708	69084.537153	69084.54017491601	69093.54017491601	69084.537244666	69093.538067291	9.0	664.5			3	3	0	1	74	40	700	750	68864.853522125	68865.018463333	68865.183515666	68865.363515666	68865.543432666
69079.190174916	5.35	0	69082.940174916	5.3469780839950545		69093.540115708	69084.537153	69084.54017491601	69093.54017491601	69084.537244666	69093.538067291	9.0	641.08			3	3	0	1	74	40	700	750	68864.853522125	68865.018463333	68865.183515666	68865.363515666	68865.543432666
69079.190174916	5.35	0	69083.690174916	5.3469780839950545		69093.540115708	69084.537153	69084.54017491601	69093.54017491601	69084.537244666	69093.538067291	9.0	630.02			3	3	0	1	74	40	700	750	68864.853522125	68865.018463333	68865.183515666	68865.363515666	68865.543432666
69079.190174916	5.35	0	69084.440174916	5.3469780839950545		69093.540115708	69084.537153	69084.54017491601	69093.54017491601	69084.537244666	69093.538067291	9.0	633.66			3	3	0	1	74	40	700	750	68864.853522125	68865.018463333	68865.183515666	68865.363515666	68865.543432666
69093.55730312501	5.35	0	69093.55730312501	5.346272832990508		69107.40724475	69098.903575958	69098.90730312502	69107.40730312502	69098.903664708	69107.40361275	8.5	642.69			3	3	0	1	75	40	700	750	68864.853522125	68865.018463333	68865.183515666	68865.363515666	68865.543432666
69093.55730312501	5.35	0	69094.30730312501	5.346272832990508		69107.40724475	69098.903575958	69098.90730312502	69107.40730312502	69098.903664708	69107.40361275	8.5	642.64			3	3	0	1	75	40	700	750	68864.853522125	68865.018463333	68865.183515666	68865.363515666	68865.543432666
69093.55730312501	5.35	0	69095.05730312501	5.346272832990508		69107.40724475	69098.903575958	69098.90730312502	69107.40730312502	69098.903664708	69107.40361275	8.5	631.76			3	3	0	1	75	40	700	750	68864.853522125	68865.018463333	68865.183515666	68865.363515666	68865.543432666
69093.55730312501	5.35	1	69095.80730312501	5.346272832990508		69107.40724475	69098.903575958	69098.90730312502	69107.40730312502	69098.903664708	69107.40361275	8.5	742.87			3	3	0	1	75	40	700	750	68864.853522125	68865.018463333	68865.183515666	68865.363515666	68865.543432666
69093.55730312501	5.35	0	69096.55730312501	5.346272832990508		69107.40724475	69098.903575958	69098.90730312502	69107.40730312502	69098.903664708	69107.40361275	8.5	647.81			3	3	0	1	75	40	700	750	68864.853522125	68865.018463333	68865.183515666	68865.363515666	68865.543432666
69093.55730312501	5.35	0	69097.30730312501	5.346272832990508		69107.40724475	69098.903575958	69098.90730312502	69107.40730312502	69098.903664708	69107.40361275	8.5	649.06			3	3	0	1	75	40	700	750	68864.853522125	68865.018463333	68865.183515666	68865.363515666	68865.543432666
69093.55730312501	5.35	0	69098.05730312501	5.346272832990508		69107.40724475	69098.903575958	69098.90730312502	69107.40730312502	69098.903664708	69107.40361275	8.5	650.52			3	3	0	1	75	40	700	750	68864.853522125	68865.018463333	68865.183515666	68865.363515666	68865.543432666
69093.55730312501	5.35	0	69098.80730312501	5.346272832990508		69107.40724475	69098.903575958	69098.90730312502	69107.40730312502	69098.903664708	69107.40361275	8.5	661.53			3	3	0	1	75	40	700	750	68864.853522125	68865.018463333	68865.183515666	68865.363515666	68865.543432666
69107.422244666	5.35	0	69107.422244666	5.348106000004918		69121.772184291	69112.770350666	69112.772244666	69121.772244666	69112.7704495	69121.770308958	9.0	672.79			3	2	0	1	76	40	700	750	68864.853522125	68865.018463333	68865.183515666	68865.363515666	68865.543432666
69107.422244666	5.35	0	69108.172244666	5.348106000004918		69121.772184291	69112.770350666	69112.772244666	69121.772244666	69112.7704495	69121.770308958	9.0	657.0			3	2	0	1	76	40	700	750	68864.853522125	68865.018463333	68865.183515666	68865.363515666	68865.543432666
69107.422244666	5.35	1	69108.922244666	5.348106000004918		69121.772184291	69112.770350666	69112.772244666	69121.772244666	69112.7704495	69121.770308958	9.0	731.68			3	2	0	1	76	40	700	750	68864.853522125	68865.018463333	68865.183515666	68865.363515666	68865.543432666
69107.422244666	5.35	0	69109.672244666	5.348106000004918		69121.772184291	69112.770350666	69112.772244666	69121.772244666	69112.7704495	69121.770308958	9.0	658.15			3	2	0	1	76	40	700	750	68864.853522125	68865.018463333	68865.183515666	68865.363515666	68865.543432666
69107.422244666	5.35	0	69110.422244666	5.348106000004918		69121.772184291	69112.770350666	69112.772244666	69121.772244666	69112.7704495	69121.770308958	9.0	677.98			3	2	0	1	76	40	700	750	68864.853522125	68865.018463333	68865.183515666	68865.363515666	68865.543432666
69107.422244666	5.35	0	69111.172244666	5.348106000004918		69121.772184291	69112.770350666	69112.772244666	69121.772244666	69112.7704495	69121.770308958	9.0	670.27			3	2	0	1	76	40	700	750	68864.853522125	68865.018463333	68865.183515666	68865.363515666	68865.543432666
69107.422244666	5.35	0	69111.922244666	5.348106000004918		69121.772184291	69112.770350666	69112.772244666	69121.772244666	69112.7704495	69121.770308958	9.0	667.26			3	2	0	1	76	40	700	750	68864.853522125	68865.018463333	68865.183515666	68865.363515666	68865.543432666
69107.422244666	5.35	0	69112.672244666	5.348106000004918		69121.772184291	69112.770350666	69112.772244666	69121.772244666	69112.7704495	69121.770308958	9.0	647.57			3	2	0	1	76	40	700	750	68864.853522125	68865.018463333	68865.183515666	68865.363515666	68865.543432666
69121.78968420801	5.35	0	69121.78968420801	5.344476457990822		69137.639617333	69127.134160666	69127.13968420801	69137.63968420801	69127.134178125	69137.637279916	10.5	635.66			3	4	0	1	77	40	700	750	68864.853522125	68865.018463333	68865.183515666	68865.363515666	68865.543432666
69121.78968420801	5.35	0	69122.53968420801	5.344476457990822		69137.639617333	69127.134160666	69127.13968420801	69137.63968420801	69127.134178125	69137.637279916	10.5	653.5			3	4	0	1	77	40	700	750	68864.853522125	68865.018463333	68865.183515666	68865.363515666	68865.543432666
69121.78968420801	5.35	0	69123.28968420801	5.344476457990822		69137.639617333	69127.134160666	69127.13968420801	69137.63968420801	69127.134178125	69137.637279916	10.5	647.59			3	4	0	1	77	40	700	750	68864.853522125	68865.018463333	68865.183515666	68865.363515666	68865.543432666
69121.78968420801	5.35	0	69124.03968420801	5.344476457990822		69137.639617333	69127.134160666	69127.13968420801	69137.63968420801	69127.134178125	69137.637279916	10.5	635.57			3	4	0	1	77	40	700	750	68864.853522125	68865.018463333	68865.183515666	68865.363515666	68865.543432666
69121.78968420801	5.35	1	69124.78968420801	5.344476457990822		69137.639617333	69127.134160666	69127.13968420801	69137.63968420801	69127.134178125	69137.637279916	10.5	731.34			3	4	0	1	77	40	700	750	68864.853522125	68865.018463333	68865.183515666	68865.363515666	68865.543432666
69121.78968420801	5.35	0	69125.53968420801	5.344476457990822		69137.639617333	69127.134160666	69127.13968420801	69137.63968420801	69127.134178125	69137.637279916	10.5	628.11			3	4	0	1	77	40	700	750	68864.853522125	68865.018463333	68865.183515666	68865.363515666	68865.543432666
69121.78968420801	5.35	0	69126.28968420801	5.344476457990822		69137.639617333	69127.134160666	69127.13968420801	69137.63968420801	69127.134178125	69137.637279916	10.5	627.65			3	4	0	1	77	40	700	750	68864.853522125	68865.018463333	68865.183515666	68865.363515666	68865.543432666
69121.78968420801	5.35	0	69127.03968420801	5.344476457990822		69137.639617333	69127.134160666	69127.13968420801	69137.63968420801	69127.134178125	69137.637279916	10.5	623.8			3	4	0	1	77	40	700	750	68864.853522125	68865.018463333	68865.183515666	68865.363515666	68865.543432666
69137.65617979101	5.35	0	69137.65617979101	5.3477823339926545	0.4310069999919506	69152.006119083	69143.003962125	69143.00617979102	69152.00617979102	69143.004052875	69152.003794875	9.0	651.51	y	34.0	0	4	0	1	78	40	700	750	68864.853522125	68865.018463333	68865.183515666	68865.363515666	68865.543432666
69137.65617979101	5.35	0	69138.40617979101	5.3477823339926545	0.4310069999919506	69152.006119083	69143.003962125	69143.00617979102	69152.00617979102	69143.004052875	69152.003794875	9.0	636.59	y	34.0	0	4	0	1	78	40	700	750	68864.853522125	68865.018463333	68865.183515666	68865.363515666	68865.543432666
69137.65617979101	5.35	0	69139.15617979101	5.3477823339926545	0.4310069999919506	69152.006119083	69143.003962125	69143.00617979102	69152.00617979102	69143.004052875	69152.003794875	9.0	621.93	y	34.0	0	4	0	1	78	40	700	750	68864.853522125	68865.018463333	68865.183515666	68865.363515666	68865.543432666
69137.65617979101	5.35	0	69139.90617979101	5.3477823339926545	0.4310069999919506	69152.006119083	69143.003962125	69143.00617979102	69152.00617979102	69143.004052875	69152.003794875	9.0	638.41	y	34.0	0	4	0	1	78	40	700	750	68864.853522125	68865.018463333	68865.183515666	68865.363515666	68865.543432666
69137.65617979101	5.35	1	69140.65617979101	5.3477823339926545	0.4310069999919506	69152.006119083	69143.003962125	69143.00617979102	69152.00617979102	69143.004052875	69152.003794875	9.0	755.35	y	34.0	0	4	0	1	78	40	700	750	68864.853522125	68865.018463333	68865.183515666	68865.363515666	68865.543432666
69137.65617979101	5.35	0	69141.40617979101	5.3477823339926545	0.4310069999919506	69152.006119083	69143.003962125	69143.00617979102	69152.00617979102	69143.004052875	69152.003794875	9.0	678.11	y	34.0	0	4	0	1	78	40	700	750	68864.853522125	68865.018463333	68865.183515666	68865.363515666	68865.543432666
69137.65617979101	5.35	0	69142.15617979101	5.3477823339926545	0.4310069999919506	69152.006119083	69143.003962125	69143.00617979102	69152.00617979102	69143.004052875	69152.003794875	9.0	661.01	y	34.0	0	4	0	1	78	40	700	750	68864.853522125	68865.018463333	68865.183515666	68865.363515666	68865.543432666
69137.65617979101	5.35	0	69142.90617979101	5.3477823339926545	0.4310069999919506	69152.006119083	69143.003962125	69143.00617979102	69152.00617979102	69143.004052875	69152.003794875	9.0	625.98	y	34.0	0	4	0	1	78	40	700	750	68864.853522125	68865.018463333	68865.183515666	68865.363515666	68865.543432666
69152.0233065	5.35	0	69152.0233065	5.347116416000063		69167.373241958	69157.370422916	69157.37330650001	69167.37330650001	69157.370533708	69167.3705685	10.0	647.79			4	0	2	1	79	40	700	750	68864.853522125	68865.018463333	68865.183515666	68865.363515666	68865.543432666
69152.0233065	5.35	0	69152.7733065	5.347116416000063		69167.373241958	69157.370422916	69157.37330650001	69167.37330650001	69157.370533708	69167.3705685	10.0	660.1			4	0	2	1	79	40	700	750	68864.853522125	68865.018463333	68865.183515666	68865.363515666	68865.543432666
69152.0233065	5.35	0	69153.5233065	5.347116416000063		69167.373241958	69157.370422916	69157.37330650001	69167.37330650001	69157.370533708	69167.3705685	10.0	662.6			4	0	2	1	79	40	700	750	68864.853522125	68865.018463333	68865.183515666	68865.363515666	68865.543432666
69152.0233065	5.35	0	69154.2733065	5.347116416000063		69167.373241958	69157.370422916	69157.37330650001	69167.37330650001	69157.370533708	69167.3705685	10.0	674.15			4	0	2	1	79	40	700	750	68864.853522125	68865.018463333	68865.183515666	68865.363515666	68865.543432666
69152.0233065	5.35	0	69155.0233065	5.347116416000063		69167.373241958	69157.370422916	69157.37330650001	69167.37330650001	69157.370533708	69167.3705685	10.0	681.55			4	0	2	1	79	40	700	750	68864.853522125	68865.018463333	68865.183515666	68865.363515666	68865.543432666
69152.0233065	5.35	0	69155.7733065	5.347116416000063		69167.373241958	69157.370422916	69157.37330650001	69167.37330650001	69157.370533708	69167.3705685	10.0	684.52			4	0	2	1	79	40	700	750	68864.853522125	68865.018463333	68865.183515666	68865.363515666	68865.543432666
69152.0233065	5.35	0	69156.5233065	5.347116416000063		69167.373241958	69157.370422916	69157.37330650001	69167.37330650001	69157.370533708	69167.3705685	10.0	666.28			4	0	2	1	79	40	700	750	68864.853522125	68865.018463333	68865.183515666	68865.363515666	68865.543432666
69152.0233065	5.35	0	69157.2733065	5.347116416000063		69167.373241958	69157.370422916	69157.37330650001	69167.37330650001	69157.370533708	69167.3705685	10.0	695.29			4	0	2	1	79	40	700	750	68864.853522125	68865.018463333	68865.183515666	68865.363515666	68865.543432666
69167.38980437501	5.35	0	69167.38980437501	5.347205999991274		69181.739743791	69172.737010375	69172.73980437501	69181.73980437501	69172.737105916	69181.736927291	9.0	688.29			3	2	0	1	80	40	700	750	68864.853522125	68865.018463333	68865.183515666	68865.363515666	68865.543432666
69167.38980437501	5.35	0	69168.13980437501	5.347205999991274		69181.739743791	69172.737010375	69172.73980437501	69181.73980437501	69172.737105916	69181.736927291	9.0	671.01			3	2	0	1	80	40	700	750	68864.853522125	68865.018463333	68865.183515666	68865.363515666	68865.543432666
69167.38980437501	5.35	1	69168.88980437501	5.347205999991274		69181.739743791	69172.737010375	69172.73980437501	69181.73980437501	69172.737105916	69181.736927291	9.0	725.79			3	2	0	1	80	40	700	750	68864.853522125	68865.018463333	68865.183515666	68865.363515666	68865.543432666
69167.38980437501	5.35	0	69169.63980437501	5.347205999991274		69181.739743791	69172.737010375	69172.73980437501	69181.73980437501	69172.737105916	69181.736927291	9.0	681.91			3	2	0	1	80	40	700	750	68864.853522125	68865.018463333	68865.183515666	68865.363515666	68865.543432666
69167.38980437501	5.35	0	69170.38980437501	5.347205999991274		69181.739743791	69172.737010375	69172.73980437501	69181.73980437501	69172.737105916	69181.736927291	9.0	685.37			3	2	0	1	80	40	700	750	68864.853522125	68865.018463333	68865.183515666	68865.363515666	68865.543432666
69167.38980437501	5.35	0	69171.13980437501	5.347205999991274		69181.739743791	69172.737010375	69172.73980437501	69181.73980437501	69172.737105916	69181.736927291	9.0	668.93			3	2	0	1	80	40	700	750	68864.853522125	68865.018463333	68865.183515666	68865.363515666	68865.543432666
69167.38980437501	5.35	0	69171.88980437501	5.347205999991274		69181.739743791	69172.737010375	69172.73980437501	69181.73980437501	69172.737105916	69181.736927291	9.0	683.1			3	2	0	1	80	40	700	750	68864.853522125	68865.018463333	68865.183515666	68865.363515666	68865.543432666
69167.38980437501	5.35	0	69172.63980437501	5.347205999991274		69181.739743791	69172.737010375	69172.73980437501	69181.73980437501	69172.737105916	69181.736927291	9.0	711.22			3	2	0	1	80	40	700	750	68864.853522125	68865.018463333	68865.183515666	68865.363515666	68865.543432666
69181.75661870801	5.35	0	69181.75661870801	5.3475896249874495		69195.106562625	69187.104208333	69187.10661870801	69195.10661870801	69187.104302458	69195.103743	8.0	699.01			3	2	0	1	81	40	700	750	68864.853522125	68865.018463333	68865.183515666	68865.363515666	68865.543432666
69181.75661870801	5.35	0	69182.50661870801	5.3475896249874495		69195.106562625	69187.104208333	69187.10661870801	69195.10661870801	69187.104302458	69195.103743	8.0	703.11			3	2	0	1	81	40	700	750	68864.853522125	68865.018463333	68865.183515666	68865.363515666	68865.543432666
69181.75661870801	5.35	1	69183.25661870801	5.3475896249874495		69195.106562625	69187.104208333	69187.10661870801	69195.10661870801	69187.104302458	69195.103743	8.0	771.18			3	2	0	1	81	40	700	750	68864.853522125	68865.018463333	68865.183515666	68865.363515666	68865.543432666
69181.75661870801	5.35	0	69184.00661870801	5.3475896249874495		69195.106562625	69187.104208333	69187.10661870801	69195.10661870801	69187.104302458	69195.103743	8.0	715.33			3	2	0	1	81	40	700	750	68864.853522125	68865.018463333	68865.183515666	68865.363515666	68865.543432666
69181.75661870801	5.35	0	69184.75661870801	5.3475896249874495		69195.106562625	69187.104208333	69187.10661870801	69195.10661870801	69187.104302458	69195.103743	8.0	751.75			3	2	0	1	81	40	700	750	68864.853522125	68865.018463333	68865.183515666	68865.363515666	68865.543432666
69181.75661870801	5.35	0	69185.50661870801	5.3475896249874495		69195.106562625	69187.104208333	69187.10661870801	69195.10661870801	69187.104302458	69195.103743	8.0	760.89			3	2	0	1	81	40	700	750	68864.853522125	68865.018463333	68865.183515666	68865.363515666	68865.543432666
69181.75661870801	5.35	0	69186.25661870801	5.3475896249874495		69195.106562625	69187.104208333	69187.10661870801	69195.10661870801	69187.104302458	69195.103743	8.0	733.27			3	2	0	1	81	40	700	750	68864.853522125	68865.018463333	68865.183515666	68865.363515666	68865.543432666
69181.75661870801	5.35	0	69187.00661870801	5.3475896249874495		69195.106562625	69187.104208333	69187.10661870801	69195.10661870801	69187.104302458	69195.103743	8.0	750.43			3	2	0	1	81	40	700	750	68864.853522125	68865.018463333	68865.183515666	68865.363515666	68865.543432666
69195.123125083	5.35	0	69195.123125083	5.345079042002908		69211.473055291	69200.468204125	69200.47312508301	69211.47312508301	69200.468274708	69211.470482541	11.0	732.94			3	2	0	1	82	40	700	750	68864.853522125	68865.018463333	68865.183515666	68865.363515666	68865.543432666
69195.123125083	5.35	0	69195.873125083	5.345079042002908		69211.473055291	69200.468204125	69200.47312508301	69211.47312508301	69200.468274708	69211.470482541	11.0	734.44			3	2	0	1	82	40	700	750	68864.853522125	68865.018463333	68865.183515666	68865.363515666	68865.543432666
69195.123125083	5.35	1	69196.623125083	5.345079042002908		69211.473055291	69200.468204125	69200.47312508301	69211.47312508301	69200.468274708	69211.470482541	11.0	758.87			3	2	0	1	82	40	700	750	68864.853522125	68865.018463333	68865.183515666	68865.363515666	68865.543432666
69195.123125083	5.35	0	69197.373125083	5.345079042002908		69211.473055291	69200.468204125	69200.47312508301	69211.47312508301	69200.468274708	69211.470482541	11.0	757.13			3	2	0	1	82	40	700	750	68864.853522125	68865.018463333	68865.183515666	68865.363515666	68865.543432666
69195.123125083	5.35	0	69198.123125083	5.345079042002908		69211.473055291	69200.468204125	69200.47312508301	69211.47312508301	69200.468274708	69211.470482541	11.0	763.48			3	2	0	1	82	40	700	750	68864.853522125	68865.018463333	68865.183515666	68865.363515666	68865.543432666
69195.123125083	5.35	0	69198.873125083	5.345079042002908		69211.473055291	69200.468204125	69200.47312508301	69211.47312508301	69200.468274708	69211.470482541	11.0	768.58			3	2	0	1	82	40	700	750	68864.853522125	68865.018463333	68865.183515666	68865.363515666	68865.543432666
69195.123125083	5.35	0	69199.623125083	5.345079042002908		69211.473055291	69200.468204125	69200.47312508301	69211.47312508301	69200.468274708	69211.470482541	11.0	778.5			3	2	0	1	82	40	700	750	68864.853522125	68865.018463333	68865.183515666	68865.363515666	68865.543432666
69195.123125083	5.35	0	69200.373125083	5.345079042002908		69211.473055291	69200.468204125	69200.47312508301	69211.47312508301	69200.468274708	69211.470482541	11.0	733.56			3	2	0	1	82	40	700	750	68864.853522125	68865.018463333	68865.183515666	68865.363515666	68865.543432666
69211.48961770801	5.35	0	69211.48961770801	5.346683957992354		69224.839561208	69216.836301666	69216.83961770801	69224.83961770801	69216.836390291	69224.836926	8.0	736.89			4	0	2	1	83	40	700	750	68864.853522125	68865.018463333	68865.183515666	68865.363515666	68865.543432666
69211.48961770801	5.35	0	69212.23961770801	5.346683957992354		69224.839561208	69216.836301666	69216.83961770801	69224.83961770801	69216.836390291	69224.836926	8.0	763.55			4	0	2	1	83	40	700	750	68864.853522125	68865.018463333	68865.183515666	68865.363515666	68865.543432666
69211.48961770801	5.35	0	69212.98961770801	5.346683957992354		69224.839561208	69216.836301666	69216.83961770801	69224.83961770801	69216.836390291	69224.836926	8.0	754.43			4	0	2	1	83	40	700	750	68864.853522125	68865.018463333	68865.183515666	68865.363515666	68865.543432666
69211.48961770801	5.35	0	69213.73961770801	5.346683957992354		69224.839561208	69216.836301666	69216.83961770801	69224.83961770801	69216.836390291	69224.836926	8.0	746.48			4	0	2	1	83	40	700	750	68864.853522125	68865.018463333	68865.183515666	68865.363515666	68865.543432666
69211.48961770801	5.35	0	69214.48961770801	5.346683957992354		69224.839561208	69216.836301666	69216.83961770801	69224.83961770801	69216.836390291	69224.836926	8.0	769.52			4	0	2	1	83	40	700	750	68864.853522125	68865.018463333	68865.183515666	68865.363515666	68865.543432666
69211.48961770801	5.35	0	69215.23961770801	5.346683957992354		69224.839561208	69216.836301666	69216.83961770801	69224.83961770801	69216.836390291	69224.836926	8.0	754.91			4	0	2	1	83	40	700	750	68864.853522125	68865.018463333	68865.183515666	68865.363515666	68865.543432666
69211.48961770801	5.35	0	69215.98961770801	5.346683957992354		69224.839561208	69216.836301666	69216.83961770801	69224.83961770801	69216.836390291	69224.836926	8.0	765.92			4	0	2	1	83	40	700	750	68864.853522125	68865.018463333	68865.183515666	68865.363515666	68865.543432666
69211.48961770801	5.35	0	69216.73961770801	5.346683957992354		69224.839561208	69216.836301666	69216.83961770801	69224.83961770801	69216.836390291	69224.836926	8.0	758.24			4	0	2	1	83	40	700	750	68864.853522125	68865.018463333	68865.183515666	68865.363515666	68865.543432666
69224.85612362501	5.35	0	69224.85612362501	5.347454624992679		69238.70606425	69230.20357825	69230.20612362502	69238.70612362502	69230.203673416	69238.701443208	8.5	760.85			3	5	1	1	84	40	700	750	68864.853522125	68865.018463333	68865.183515666	68865.363515666	68865.543432666
69224.85612362501	5.35	0	69225.60612362501	5.347454624992679		69238.70606425	69230.20357825	69230.20612362502	69238.70612362502	69230.203673416	69238.701443208	8.5	745.15			3	5	1	1	84	40	700	750	68864.853522125	68865.018463333	68865.183515666	68865.363515666	68865.543432666
69224.85612362501	5.35	0	69226.35612362501	5.347454624992679		69238.70606425	69230.20357825	69230.20612362502	69238.70612362502	69230.203673416	69238.701443208	8.5	752.72			3	5	1	1	84	40	700	750	68864.853522125	68865.018463333	68865.183515666	68865.363515666	68865.543432666
69224.85612362501	5.35	0	69227.10612362501	5.347454624992679		69238.70606425	69230.20357825	69230.20612362502	69238.70612362502	69230.203673416	69238.701443208	8.5	750.23			3	5	1	1	84	40	700	750	68864.853522125	68865.018463333	68865.183515666	68865.363515666	68865.543432666
69224.85612362501	5.35	0	69227.85612362501	5.347454624992679		69238.70606425	69230.20357825	69230.20612362502	69238.70612362502	69230.203673416	69238.701443208	8.5	755.64			3	5	1	1	84	40	700	750	68864.853522125	68865.018463333	68865.183515666	68865.363515666	68865.543432666
69224.85612362501	5.35	1	69228.60612362501	5.347454624992679		69238.70606425	69230.20357825	69230.20612362502	69238.70612362502	69230.203673416	69238.701443208	8.5	774.92			3	5	1	1	84	40	700	750	68864.853522125	68865.018463333	68865.183515666	68865.363515666	68865.543432666
69224.85612362501	5.35	0	69229.35612362501	5.347454624992679		69238.70606425	69230.20357825	69230.20612362502	69238.70612362502	69230.203673416	69238.701443208	8.5	727.88			3	5	1	1	84	40	700	750	68864.853522125	68865.018463333	68865.183515666	68865.363515666	68865.543432666
69224.85612362501	5.35	0	69230.10612362501	5.347454624992679		69238.70606425	69230.20357825	69230.20612362502	69238.70612362502	69230.203673416	69238.701443208	8.5	752.65			3	5	1	1	84	40	700	750	68864.853522125	68865.018463333	68865.183515666	68865.363515666	68865.543432666
69238.72075170801	5.35	0	69238.72075170801	5.3495303749950835		69251.070698375	69244.070282083	69244.07075170802	69251.07075170802	69244.070382375	69251.070193583	7.0	756.61			3	6	1	1	85	40	700	750	68864.853522125	68865.018463333	68865.183515666	68865.363515666	68865.543432666
69238.72075170801	5.35	0	69239.47075170801	5.3495303749950835		69251.070698375	69244.070282083	69244.07075170802	69251.07075170802	69244.070382375	69251.070193583	7.0	746.6			3	6	1	1	85	40	700	750	68864.853522125	68865.018463333	68865.183515666	68865.363515666	68865.543432666
69238.72075170801	5.35	0	69240.22075170801	5.3495303749950835		69251.070698375	69244.070282083	69244.07075170802	69251.07075170802	69244.070382375	69251.070193583	7.0	740.43			3	6	1	1	85	40	700	750	68864.853522125	68865.018463333	68865.183515666	68865.363515666	68865.543432666
69238.72075170801	5.35	0	69240.97075170801	5.3495303749950835		69251.070698375	69244.070282083	69244.07075170802	69251.07075170802	69244.070382375	69251.070193583	7.0	734.57			3	6	1	1	85	40	700	750	68864.853522125	68865.018463333	68865.183515666	68865.363515666	68865.543432666
69238.72075170801	5.35	0	69241.72075170801	5.3495303749950835		69251.070698375	69244.070282083	69244.07075170802	69251.07075170802	69244.070382375	69251.070193583	7.0	721.53			3	6	1	1	85	40	700	750	68864.853522125	68865.018463333	68865.183515666	68865.363515666	68865.543432666
69238.72075170801	5.35	0	69242.47075170801	5.3495303749950835		69251.070698375	69244.070282083	69244.07075170802	69251.07075170802	69244.070382375	69251.070193583	7.0	720.15			3	6	1	1	85	40	700	750	68864.853522125	68865.018463333	68865.183515666	68865.363515666	68865.543432666
69238.72075170801	5.35	1	69243.22075170801	5.3495303749950835		69251.070698375	69244.070282083	69244.07075170802	69251.07075170802	69244.070382375	69251.070193583	7.0	763.94			3	6	1	1	85	40	700	750	68864.853522125	68865.018463333	68865.183515666	68865.363515666	68865.543432666
69238.72075170801	5.35	0	69243.97075170801	5.3495303749950835		69251.070698375	69244.070282083	69244.07075170802	69251.07075170802	69244.070382375	69251.070193583	7.0	731.28			3	6	1	1	85	40	700	750	68864.853522125	68865.018463333	68865.183515666	68865.363515666	68865.543432666
69251.088510791	5.35	0	69251.088510791	5.347561959002633		69263.43845595799	69256.43607275	69256.438510791	69263.438510791	69256.436161916	69263.436795333	7.0	755.52			3	4	1	1	86	40	700	750	68864.853522125	68865.018463333	68865.183515666	68865.363515666	68865.543432666
69251.088510791	5.35	0	69251.838510791	5.347561959002633		69263.43845595799	69256.43607275	69256.438510791	69263.438510791	69256.436161916	69263.436795333	7.0	742.65			3	4	1	1	86	40	700	750	68864.853522125	68865.018463333	68865.183515666	68865.363515666	68865.543432666
69251.088510791	5.35	0	69252.588510791	5.347561959002633		69263.43845595799	69256.43607275	69256.438510791	69263.438510791	69256.436161916	69263.436795333	7.0	754.53			3	4	1	1	86	40	700	750	68864.853522125	68865.018463333	68865.183515666	68865.363515666	68865.543432666
69251.088510791	5.35	0	69253.338510791	5.347561959002633		69263.43845595799	69256.43607275	69256.438510791	69263.438510791	69256.436161916	69263.436795333	7.0	757.94			3	4	1	1	86	40	700	750	68864.853522125	68865.018463333	68865.183515666	68865.363515666	68865.543432666
69251.088510791	5.35	1	69254.088510791	5.347561959002633		69263.43845595799	69256.43607275	69256.438510791	69263.438510791	69256.436161916	69263.436795333	7.0	770.72			3	4	1	1	86	40	700	750	68864.853522125	68865.018463333	68865.183515666	68865.363515666	68865.543432666
69251.088510791	5.35	0	69254.838510791	5.347561959002633		69263.43845595799	69256.43607275	69256.438510791	69263.438510791	69256.436161916	69263.436795333	7.0	775.04			3	4	1	1	86	40	700	750	68864.853522125	68865.018463333	68865.183515666	68865.363515666	68865.543432666
69251.088510791	5.35	0	69255.588510791	5.347561959002633		69263.43845595799	69256.43607275	69256.438510791	69263.438510791	69256.436161916	69263.436795333	7.0	766.05			3	4	1	1	86	40	700	750	68864.853522125	68865.018463333	68865.183515666	68865.363515666	68865.543432666
69251.088510791	5.35	0	69256.338510791	5.347561959002633		69263.43845595799	69256.43607275	69256.438510791	69263.438510791	69256.436161916	69263.436795333	7.0	768.56			3	4	1	1	86	40	700	750	68864.853522125	68865.018463333	68865.183515666	68865.363515666	68865.543432666
69263.454393416	5.35	0	69263.454393416	5.346754917001817		69280.30431875	69268.801148333	69268.80439341601	69280.30439341601	69268.801218125	69280.301205083	11.5	745.94			3	5	1	1	87	40	700	750	68864.853522125	68865.018463333	68865.183515666	68865.363515666	68865.543432666
69263.454393416	5.35	0	69264.204393416	5.346754917001817		69280.30431875	69268.801148333	69268.80439341601	69280.30439341601	69268.801218125	69280.301205083	11.5	757.0			3	5	1	1	87	40	700	750	68864.853522125	68865.018463333	68865.183515666	68865.363515666	68865.543432666
69263.454393416	5.35	0	69264.954393416	5.346754917001817		69280.30431875	69268.801148333	69268.80439341601	69280.30439341601	69268.801218125	69280.301205083	11.5	747.2			3	5	1	1	87	40	700	750	68864.853522125	68865.018463333	68865.183515666	68865.363515666	68865.543432666
69263.454393416	5.35	0	69265.704393416	5.346754917001817		69280.30431875	69268.801148333	69268.80439341601	69280.30439341601	69268.801218125	69280.301205083	11.5	734.15			3	5	1	1	87	40	700	750	68864.853522125	68865.018463333	68865.183515666	68865.363515666	68865.543432666
69263.454393416	5.35	0	69266.454393416	5.346754917001817		69280.30431875	69268.801148333	69268.80439341601	69280.30439341601	69268.801218125	69280.301205083	11.5	727.04			3	5	1	1	87	40	700	750	68864.853522125	68865.018463333	68865.183515666	68865.363515666	68865.543432666
69263.454393416	5.35	1	69267.204393416	5.346754917001817		69280.30431875	69268.801148333	69268.80439341601	69280.30439341601	69268.801218125	69280.301205083	11.5	756.34			3	5	1	1	87	40	700	750	68864.853522125	68865.018463333	68865.183515666	68865.363515666	68865.543432666
69263.454393416	5.35	0	69267.954393416	5.346754917001817		69280.30431875	69268.801148333	69268.80439341601	69280.30439341601	69268.801218125	69280.301205083	11.5	703.81			3	5	1	1	87	40	700	750	68864.853522125	68865.018463333	68865.183515666	68865.363515666	68865.543432666
69263.454393416	5.35	0	69268.704393416	5.346754917001817		69280.30431875	69268.801148333	69268.80439341601	69280.30439341601	69268.801218125	69280.301205083	11.5	696.39			3	5	1	1	87	40	700	750	68864.853522125	68865.018463333	68865.183515666	68865.363515666	68865.543432666
69280.32056866601	5.35	0	69280.32056866601	5.349154041992733		69295.170502958	69285.669722708	69285.67056866601	69295.17056866601	69285.669820166	69295.169197208	9.5	704.88			3	6	1	1	88	40	700	750	68864.853522125	68865.018463333	68865.183515666	68865.363515666	68865.543432666
69280.32056866601	5.35	0	69281.07056866601	5.349154041992733		69295.170502958	69285.669722708	69285.67056866601	69295.17056866601	69285.669820166	69295.169197208	9.5	708.48			3	6	1	1	88	40	700	750	68864.853522125	68865.018463333	68865.183515666	68865.363515666	68865.543432666
69280.32056866601	5.35	0	69281.82056866601	5.349154041992733		69295.170502958	69285.669722708	69285.67056866601	69295.17056866601	69285.669820166	69295.169197208	9.5	708.24			3	6	1	1	88	40	700	750	68864.853522125	68865.018463333	68865.183515666	68865.363515666	68865.543432666
69280.32056866601	5.35	0	69282.57056866601	5.349154041992733		69295.170502958	69285.669722708	69285.67056866601	69295.17056866601	69285.669820166	69295.169197208	9.5	716.87			3	6	1	1	88	40	700	750	68864.853522125	68865.018463333	68865.183515666	68865.363515666	68865.543432666
69280.32056866601	5.35	0	69283.32056866601	5.349154041992733		69295.170502958	69285.669722708	69285.67056866601	69295.17056866601	69285.669820166	69295.169197208	9.5	699.42			3	6	1	1	88	40	700	750	68864.853522125	68865.018463333	68865.183515666	68865.363515666	68865.543432666
69280.32056866601	5.35	0	69284.07056866601	5.349154041992733		69295.170502958	69285.669722708	69285.67056866601	69295.17056866601	69285.669820166	69295.169197208	9.5	707.79			3	6	1	1	88	40	700	750	68864.853522125	68865.018463333	68865.183515666	68865.363515666	68865.543432666
69280.32056866601	5.35	1	69284.82056866601	5.349154041992733		69295.170502958	69285.669722708	69285.67056866601	69295.17056866601	69285.669820166	69295.169197208	9.5	765.65			3	6	1	1	88	40	700	750	68864.853522125	68865.018463333	68865.183515666	68865.363515666	68865.543432666
69280.32056866601	5.35	0	69285.57056866601	5.349154041992733		69295.170502958	69285.669722708	69285.67056866601	69295.17056866601	69285.669820166	69295.169197208	9.5	687.9			3	6	1	1	88	40	700	750	68864.853522125	68865.018463333	68865.183515666	68865.363515666	68865.543432666
69295.18894037501	5.35	0	69295.18894037501	5.345444915990811		69310.538872958	69300.534385291	69300.53894037502	69310.53894037502	69300.534461166	69310.53650725	10.0	712.51			3	4	1	1	89	40	700	750	68864.853522125	68865.018463333	68865.183515666	68865.363515666	68865.543432666
69295.18894037501	5.35	0	69295.93894037501	5.345444915990811		69310.538872958	69300.534385291	69300.53894037502	69310.53894037502	69300.534461166	69310.53650725	10.0	702.09			3	4	1	1	89	40	700	750	68864.853522125	68865.018463333	68865.183515666	68865.363515666	68865.543432666
69295.18894037501	5.35	0	69296.68894037501	5.345444915990811		69310.538872958	69300.534385291	69300.53894037502	69310.53894037502	69300.534461166	69310.53650725	10.0	711.46			3	4	1	1	89	40	700	750	68864.853522125	68865.018463333	68865.183515666	68865.363515666	68865.543432666
69295.18894037501	5.35	0	69297.43894037501	5.345444915990811		69310.538872958	69300.534385291	69300.53894037502	69310.53894037502	69300.534461166	69310.53650725	10.0	706.93			3	4	1	1	89	40	700	750	68864.853522125	68865.018463333	68865.183515666	68865.363515666	68865.543432666
69295.18894037501	5.35	1	69298.18894037501	5.345444915990811		69310.538872958	69300.534385291	69300.53894037502	69310.53894037502	69300.534461166	69310.53650725	10.0	751.25			3	4	1	1	89	40	700	750	68864.853522125	68865.018463333	68865.183515666	68865.363515666	68865.543432666
69295.18894037501	5.35	0	69298.93894037501	5.345444915990811		69310.538872958	69300.534385291	69300.53894037502	69310.53894037502	69300.534461166	69310.53650725	10.0	715.16			3	4	1	1	89	40	700	750	68864.853522125	68865.018463333	68865.183515666	68865.363515666	68865.543432666
69295.18894037501	5.35	0	69299.68894037501	5.345444915990811		69310.538872958	69300.534385291	69300.53894037502	69310.53894037502	69300.534461166	69310.53650725	10.0	724.06			3	4	1	1	89	40	700	750	68864.853522125	68865.018463333	68865.183515666	68865.363515666	68865.543432666
69295.18894037501	5.35	0	69300.43894037501	5.345444915990811		69310.538872958	69300.534385291	69300.53894037502	69310.53894037502	69300.534461166	69310.53650725	10.0	717.87			3	4	1	1	89	40	700	750	68864.853522125	68865.018463333	68865.183515666	68865.363515666	68865.543432666
69310.55574787501	5.35	0	69310.55574787501	5.3468572499841684	0.664763207998476	69323.405691041	69315.902605125	69315.90574787502	69323.40574787502	69315.902690541	69323.402951041	7.5	716.21	i	23.0	1	5	1	1	90	40	700	750	68864.853522125	68865.018463333	68865.183515666	68865.363515666	68865.543432666
69310.55574787501	5.35	0	69311.30574787501	5.3468572499841684	0.664763207998476	69323.405691041	69315.902605125	69315.90574787502	69323.40574787502	69315.902690541	69323.402951041	7.5	686.08	i	23.0	1	5	1	1	90	40	700	750	68864.853522125	68865.018463333	68865.183515666	68865.363515666	68865.543432666
69310.55574787501	5.35	0	69312.05574787501	5.3468572499841684	0.664763207998476	69323.405691041	69315.902605125	69315.90574787502	69323.40574787502	69315.902690541	69323.402951041	7.5	694.96	i	23.0	1	5	1	1	90	40	700	750	68864.853522125	68865.018463333	68865.183515666	68865.363515666	68865.543432666
69310.55574787501	5.35	0	69312.80574787501	5.3468572499841684	0.664763207998476	69323.405691041	69315.902605125	69315.90574787502	69323.40574787502	69315.902690541	69323.402951041	7.5	687.84	i	23.0	1	5	1	1	90	40	700	750	68864.853522125	68865.018463333	68865.183515666	68865.363515666	68865.543432666
69310.55574787501	5.35	0	69313.55574787501	5.3468572499841684	0.664763207998476	69323.405691041	69315.902605125	69315.90574787502	69323.40574787502	69315.902690541	69323.402951041	7.5	705.75	i	23.0	1	5	1	1	90	40	700	750	68864.853522125	68865.018463333	68865.183515666	68865.363515666	68865.543432666
69310.55574787501	5.35	1	69314.30574787501	5.3468572499841684	0.664763207998476	69323.405691041	69315.902605125	69315.90574787502	69323.40574787502	69315.902690541	69323.402951041	7.5	766.79	i	23.0	1	5	1	1	90	40	700	750	68864.853522125	68865.018463333	68865.183515666	68865.363515666	68865.543432666
69310.55574787501	5.35	0	69315.05574787501	5.3468572499841684	0.664763207998476	69323.405691041	69315.902605125	69315.90574787502	69323.40574787502	69315.902690541	69323.402951041	7.5	699.75	i	23.0	1	5	1	1	90	40	700	750	68864.853522125	68865.018463333	68865.183515666	68865.363515666	68865.543432666
69310.55574787501	5.35	0	69315.80574787501	5.3468572499841684	0.664763207998476	69323.405691041	69315.902605125	69315.90574787502	69323.40574787502	69315.902690541	69323.402951041	7.5	732.65	i	23.0	1	5	1	1	90	40	700	750	68864.853522125	68865.018463333	68865.183515666	68865.363515666	68865.543432666
69323.422253458	5.35	0	69323.422253458	5.347108082991326	1.0513622920116177	69336.772196	69328.769361541	69328.77225345801	69336.77225345801	69328.769452958	69336.769220416	8.0	728.58	y	11.0	0	5	1	1	91	40	700	750	68864.853522125	68865.018463333	68865.183515666	68865.363515666	68865.543432666
69323.422253458	5.35	0	69324.172253458	5.347108082991326	1.0513622920116177	69336.772196	69328.769361541	69328.77225345801	69336.77225345801	69328.769452958	69336.769220416	8.0	742.67	y	11.0	0	5	1	1	91	40	700	750	68864.853522125	68865.018463333	68865.183515666	68865.363515666	68865.543432666
69323.422253458	5.35	0	69324.922253458	5.347108082991326	1.0513622920116177	69336.772196	69328.769361541	69328.77225345801	69336.77225345801	69328.769452958	69336.769220416	8.0	729.31	y	11.0	0	5	1	1	91	40	700	750	68864.853522125	68865.018463333	68865.183515666	68865.363515666	68865.543432666
69323.422253458	5.35	0	69325.672253458	5.347108082991326	1.0513622920116177	69336.772196	69328.769361541	69328.77225345801	69336.77225345801	69328.769452958	69336.769220416	8.0	775.27	y	11.0	0	5	1	1	91	40	700	750	68864.853522125	68865.018463333	68865.183515666	68865.363515666	68865.543432666
69323.422253458	5.35	0	69326.422253458	5.347108082991326	1.0513622920116177	69336.772196	69328.769361541	69328.77225345801	69336.77225345801	69328.769452958	69336.769220416	8.0	759.65	y	11.0	0	5	1	1	91	40	700	750	68864.853522125	68865.018463333	68865.183515666	68865.363515666	68865.543432666
69323.422253458	5.35	1	69327.172253458	5.347108082991326	1.0513622920116177	69336.772196	69328.769361541	69328.77225345801	69336.77225345801	69328.769452958	69336.769220416	8.0	766.09	y	11.0	0	5	1	1	91	40	700	750	68864.853522125	68865.018463333	68865.183515666	68865.363515666	68865.543432666
69323.422253458	5.35	0	69327.922253458	5.347108082991326	1.0513622920116177	69336.772196	69328.769361541	69328.77225345801	69336.77225345801	69328.769452958	69336.769220416	8.0	729.97	y	11.0	0	5	1	1	91	40	700	750	68864.853522125	68865.018463333	68865.183515666	68865.363515666	68865.543432666
69323.422253458	5.35	0	69328.672253458	5.347108082991326	1.0513622920116177	69336.772196	69328.769361541	69328.77225345801	69336.77225345801	69328.769452958	69336.769220416	8.0	717.93	y	11.0	0	5	1	1	91	40	700	750	68864.853522125	68865.018463333	68865.183515666	68865.363515666	68865.543432666
69336.789383416	5.35	0	69336.789383416	5.346883124992019		69350.639323666	69342.136266541	69342.13938341601	69350.63938341601	69342.136358541	69350.635699208	8.5	734.33			3	6	1	1	92	40	700	750	68864.853522125	68865.018463333	68865.183515666	68865.363515666	68865.543432666
69336.789383416	5.35	0	69337.539383416	5.346883124992019		69350.639323666	69342.136266541	69342.13938341601	69350.63938341601	69342.136358541	69350.635699208	8.5	721.21			3	6	1	1	92	40	700	750	68864.853522125	68865.018463333	68865.183515666	68865.363515666	68865.543432666
69336.789383416	5.35	0	69338.289383416	5.346883124992019		69350.639323666	69342.136266541	69342.13938341601	69350.63938341601	69342.136358541	69350.635699208	8.5	741.87			3	6	1	1	92	40	700	750	68864.853522125	68865.018463333	68865.183515666	68865.363515666	68865.543432666
69336.789383416	5.35	0	69339.039383416	5.346883124992019		69350.639323666	69342.136266541	69342.13938341601	69350.63938341601	69342.136358541	69350.635699208	8.5	701.55			3	6	1	1	92	40	700	750	68864.853522125	68865.018463333	68865.183515666	68865.363515666	68865.543432666
69336.789383416	5.35	0	69339.789383416	5.346883124992019		69350.639323666	69342.136266541	69342.13938341601	69350.63938341601	69342.136358541	69350.635699208	8.5	735.25			3	6	1	1	92	40	700	750	68864.853522125	68865.018463333	68865.183515666	68865.363515666	68865.543432666
69336.789383416	5.35	0	69340.539383416	5.346883124992019		69350.639323666	69342.136266541	69342.13938341601	69350.63938341601	69342.136358541	69350.635699208	8.5	732.81			3	6	1	1	92	40	700	750	68864.853522125	68865.018463333	68865.183515666	68865.363515666	68865.543432666
69336.789383416	5.35	1	69341.289383416	5.346883124992019		69350.639323666	69342.136266541	69342.13938341601	69350.63938341601	69342.136358541	69350.635699208	8.5	748.21			3	6	1	1	92	40	700	750	68864.853522125	68865.018463333	68865.183515666	68865.363515666	68865.543432666
69336.789383416	5.35	0	69342.039383416	5.346883124992019		69350.639323666	69342.136266541	69342.13938341601	69350.63938341601	69342.136358541	69350.635699208	8.5	718.93			3	6	1	1	92	40	700	750	68864.853522125	68865.018463333	68865.183515666	68865.363515666	68865.543432666
69350.655573583	5.35	0	69350.655573583	5.346899500000291		69365.005511583	69356.002473083	69356.00557358301	69365.00557358301	69356.002574083	69365.000882083	9.0	710.29			3	4	1	1	93	40	700	750	68864.853522125	68865.018463333	68865.183515666	68865.363515666	68865.543432666
69350.655573583	5.35	0	69351.405573583	5.346899500000291		69365.005511583	69356.002473083	69356.00557358301	69365.00557358301	69356.002574083	69365.000882083	9.0	720.11			3	4	1	1	93	40	700	750	68864.853522125	68865.018463333	68865.183515666	68865.363515666	68865.543432666
69350.655573583	5.35	0	69352.155573583	5.346899500000291		69365.005511583	69356.002473083	69356.00557358301	69365.00557358301	69356.002574083	69365.000882083	9.0	721.85			3	4	1	1	93	40	700	750	68864.853522125	68865.018463333	68865.183515666	68865.363515666	68865.543432666
69350.655573583	5.35	0	69352.905573583	5.346899500000291		69365.005511583	69356.002473083	69356.00557358301	69365.00557358301	69356.002574083	69365.000882083	9.0	731.74			3	4	1	1	93	40	700	750	68864.853522125	68865.018463333	68865.183515666	68865.363515666	68865.543432666
69350.655573583	5.35	1	69353.655573583	5.346899500000291		69365.005511583	69356.002473083	69356.00557358301	69365.00557358301	69356.002574083	69365.000882083	9.0	799.33			3	4	1	1	93	40	700	750	68864.853522125	68865.018463333	68865.183515666	68865.363515666	68865.543432666
69350.655573583	5.35	0	69354.405573583	5.346899500000291		69365.005511583	69356.002473083	69356.00557358301	69365.00557358301	69356.002574083	69365.000882083	9.0	723.48			3	4	1	1	93	40	700	750	68864.853522125	68865.018463333	68865.183515666	68865.363515666	68865.543432666
69350.655573583	5.35	0	69355.155573583	5.346899500000291		69365.005511583	69356.002473083	69356.00557358301	69365.00557358301	69356.002574083	69365.000882083	9.0	711.33			3	4	1	1	93	40	700	750	68864.853522125	68865.018463333	68865.183515666	68865.363515666	68865.543432666
69350.655573583	5.35	0	69355.905573583	5.346899500000291		69365.005511583	69356.002473083	69356.00557358301	69365.00557358301	69356.002574083	69365.000882083	9.0	740.65			3	4	1	1	93	40	700	750	68864.853522125	68865.018463333	68865.183515666	68865.363515666	68865.543432666
69365.02269900001	5.35	0	69365.02269900001	5.346450749988435		69381.872625833	69370.36914975	69370.37269900001	69381.87269900001	69370.36924225	69381.869577166	11.5	730.83			3	5	1	1	94	40	700	750	68864.853522125	68865.018463333	68865.183515666	68865.363515666	68865.543432666
69365.02269900001	5.35	0	69365.77269900001	5.346450749988435		69381.872625833	69370.36914975	69370.37269900001	69381.87269900001	69370.36924225	69381.869577166	11.5	719.92			3	5	1	1	94	40	700	750	68864.853522125	68865.018463333	68865.183515666	68865.363515666	68865.543432666
69365.02269900001	5.35	0	69366.52269900001	5.346450749988435		69381.872625833	69370.36914975	69370.37269900001	69381.87269900001	69370.36924225	69381.869577166	11.5	707.22			3	5	1	1	94	40	700	750	68864.853522125	68865.018463333	68865.183515666	68865.363515666	68865.543432666
69365.02269900001	5.35	0	69367.27269900001	5.346450749988435		69381.872625833	69370.36914975	69370.37269900001	69381.87269900001	69370.36924225	69381.869577166	11.5	703.95			3	5	1	1	94	40	700	750	68864.853522125	68865.018463333	68865.183515666	68865.363515666	68865.543432666
69365.02269900001	5.35	0	69368.02269900001	5.346450749988435		69381.872625833	69370.36914975	69370.37269900001	69381.87269900001	69370.36924225	69381.869577166	11.5	699.44			3	5	1	1	94	40	700	750	68864.853522125	68865.018463333	68865.183515666	68865.363515666	68865.543432666
69365.02269900001	5.35	1	69368.77269900001	5.346450749988435		69381.872625833	69370.36914975	69370.37269900001	69381.87269900001	69370.36924225	69381.869577166	11.5	772.42			3	5	1	1	94	40	700	750	68864.853522125	68865.018463333	68865.183515666	68865.363515666	68865.543432666
69365.02269900001	5.35	0	69369.52269900001	5.346450749988435		69381.872625833	69370.36914975	69370.37269900001	69381.87269900001	69370.36924225	69381.869577166	11.5	674.16			3	5	1	1	94	40	700	750	68864.853522125	68865.018463333	68865.183515666	68865.363515666	68865.543432666
69365.02269900001	5.35	0	69370.27269900001	5.346450749988435		69381.872625833	69370.36914975	69370.37269900001	69381.87269900001	69370.36924225	69381.869577166	11.5	658.92			3	5	1	1	94	40	700	750	68864.853522125	68865.018463333	68865.183515666	68865.363515666	68865.543432666
69381.88856325	5.35	0	69381.88856325	5.346921165997628		69398.738489708	69387.235484416	69387.23856325001	69398.73856325001	69387.235570375	69398.736044708	11.5	680.8			3	5	1	1	95	40	700	750	68864.853522125	68865.018463333	68865.183515666	68865.363515666	68865.543432666
69381.88856325	5.35	0	69382.63856325	5.346921165997628		69398.738489708	69387.235484416	69387.23856325001	69398.73856325001	69387.235570375	69398.736044708	11.5	690.69			3	5	1	1	95	40	700	750	68864.853522125	68865.018463333	68865.183515666	68865.363515666	68865.543432666
69381.88856325	5.35	0	69383.38856325	5.346921165997628		69398.738489708	69387.235484416	69387.23856325001	69398.73856325001	69387.235570375	69398.736044708	11.5	680.32			3	5	1	1	95	40	700	750	68864.853522125	68865.018463333	68865.183515666	68865.363515666	68865.543432666
69381.88856325	5.35	0	69384.13856325	5.346921165997628		69398.738489708	69387.235484416	69387.23856325001	69398.73856325001	69387.235570375	69398.736044708	11.5	685.87			3	5	1	1	95	40	700	750	68864.853522125	68865.018463333	68865.183515666	68865.363515666	68865.543432666
69381.88856325	5.35	0	69384.88856325	5.346921165997628		69398.738489708	69387.235484416	69387.23856325001	69398.73856325001	69387.235570375	69398.736044708	11.5	671.56			3	5	1	1	95	40	700	750	68864.853522125	68865.018463333	68865.183515666	68865.363515666	68865.543432666
69381.88856325	5.35	1	69385.63856325	5.346921165997628		69398.738489708	69387.235484416	69387.23856325001	69398.73856325001	69387.235570375	69398.736044708	11.5	733.03			3	5	1	1	95	40	700	750	68864.853522125	68865.018463333	68865.183515666	68865.363515666	68865.543432666
69381.88856325	5.35	0	69386.38856325	5.346921165997628		69398.738489708	69387.235484416	69387.23856325001	69398.73856325001	69387.235570375	69398.736044708	11.5	690.02			3	5	1	1	95	40	700	750	68864.853522125	68865.018463333	68865.183515666	68865.363515666	68865.543432666
69381.88856325	5.35	0	69387.13856325	5.346921165997628		69398.738489708	69387.235484416	69387.23856325001	69398.73856325001	69387.235570375	69398.736044708	11.5	661.69			3	5	1	1	95	40	700	750	68864.853522125	68865.018463333	68865.183515666	68865.363515666	68865.543432666
69398.75536466601	5.35	0	69398.75536466601	5.346725749986945		69412.605303208	69404.102090416	69404.10536466601	69412.60536466601	69404.102183666	69412.600472458	8.5	658.7			4	0	2	1	96	40	700	750	68864.853522125	68865.018463333	68865.183515666	68865.363515666	68865.543432666
69398.75536466601	5.35	0	69399.50536466601	5.346725749986945		69412.605303208	69404.102090416	69404.10536466601	69412.60536466601	69404.102183666	69412.600472458	8.5	644.77			4	0	2	1	96	40	700	750	68864.853522125	68865.018463333	68865.183515666	68865.363515666	68865.543432666
69398.75536466601	5.35	0	69400.25536466601	5.346725749986945		69412.605303208	69404.102090416	69404.10536466601	69412.60536466601	69404.102183666	69412.600472458	8.5	648.14			4	0	2	1	96	40	700	750	68864.853522125	68865.018463333	68865.183515666	68865.363515666	68865.543432666
69398.75536466601	5.35	0	69401.00536466601	5.346725749986945		69412.605303208	69404.102090416	69404.10536466601	69412.60536466601	69404.102183666	69412.600472458	8.5	659.98			4	0	2	1	96	40	700	750	68864.853522125	68865.018463333	68865.183515666	68865.363515666	68865.543432666
69398.75536466601	5.35	0	69401.75536466601	5.346725749986945		69412.605303208	69404.102090416	69404.10536466601	69412.60536466601	69404.102183666	69412.600472458	8.5	655.23			4	0	2	1	96	40	700	750	68864.853522125	68865.018463333	68865.183515666	68865.363515666	68865.543432666
69398.75536466601	5.35	0	69402.50536466601	5.346725749986945		69412.605303208	69404.102090416	69404.10536466601	69412.60536466601	69404.102183666	69412.600472458	8.5	691.05			4	0	2	1	96	40	700	750	68864.853522125	68865.018463333	68865.183515666	68865.363515666	68865.543432666
69398.75536466601	5.35	0	69403.25536466601	5.346725749986945		69412.605303208	69404.102090416	69404.10536466601	69412.60536466601	69404.102183666	69412.600472458	8.5	646.68			4	0	2	1	96	40	700	750	68864.853522125	68865.018463333	68865.183515666	68865.363515666	68865.543432666
69398.75536466601	5.35	0	69404.00536466601	5.346725749986945		69412.605303208	69404.102090416	69404.10536466601	69412.60536466601	69404.102183666	69412.600472458	8.5	683.45			4	0	2	1	96	40	700	750	68864.853522125	68865.018463333	68865.183515666	68865.363515666	68865.543432666
69412.62030304101	5.35	0	69412.62030304101	5.348530958988704		69428.470232666	69417.968834	69417.97030304102	69428.47030304102	69417.968934583	69428.46973375	10.5	685.11			3	6	1	1	97	40	700	750	68864.853522125	68865.018463333	68865.183515666	68865.363515666	68865.543432666
69412.62030304101	5.35	0	69413.37030304101	5.348530958988704		69428.470232666	69417.968834	69417.97030304102	69428.47030304102	69417.968934583	69428.46973375	10.5	693.76			3	6	1	1	97	40	700	750	68864.853522125	68865.018463333	68865.183515666	68865.363515666	68865.543432666
69412.62030304101	5.35	0	69414.12030304101	5.348530958988704		69428.470232666	69417.968834	69417.97030304102	69428.47030304102	69417.968934583	69428.46973375	10.5	679.04			3	6	1	1	97	40	700	750	68864.853522125	68865.018463333	68865.183515666	68865.363515666	68865.543432666
69412.62030304101	5.35	0	69414.87030304101	5.348530958988704		69428.470232666	69417.968834	69417.97030304102	69428.47030304102	69417.968934583	69428.46973375	10.5	663.67			3	6	1	1	97	40	700	750	68864.853522125	68865.018463333	68865.183515666	68865.363515666	68865.543432666
69412.62030304101	5.35	0	69415.62030304101	5.348530958988704		69428.470232666	69417.968834	69417.97030304102	69428.47030304102	69417.968934583	69428.46973375	10.5	670.3			3	6	1	1	97	40	700	750	68864.853522125	68865.018463333	68865.183515666	68865.363515666	68865.543432666
69412.62030304101	5.35	0	69416.37030304101	5.348530958988704		69428.470232666	69417.968834	69417.97030304102	69428.47030304102	69417.968934583	69428.46973375	10.5	665.17			3	6	1	1	97	40	700	750	68864.853522125	68865.018463333	68865.183515666	68865.363515666	68865.543432666
69412.62030304101	5.35	1	69417.12030304101	5.348530958988704		69428.470232666	69417.968834	69417.97030304102	69428.47030304102	69417.968934583	69428.46973375	10.5	765.99			3	6	1	1	97	40	700	750	68864.853522125	68865.018463333	68865.183515666	68865.363515666	68865.543432666
69412.62030304101	5.35	0	69417.87030304101	5.348530958988704		69428.470232666	69417.968834	69417.97030304102	69428.47030304102	69417.968934583	69428.46973375	10.5	686.1			3	6	1	1	97	40	700	750	68864.853522125	68865.018463333	68865.183515666	68865.363515666	68865.543432666
69428.488982583	5.35	0	69428.488982583	5.346429457989871		69445.33890725	69433.835412041	69433.83898258301	69445.33898258301	69433.83550525	69445.332751166	11.5	696.07			3	4	1	1	98	40	700	750	68864.853522125	68865.018463333	68865.183515666	68865.363515666	68865.543432666
69428.488982583	5.35	0	69429.238982583	5.346429457989871		69445.33890725	69433.835412041	69433.83898258301	69445.33898258301	69433.83550525	69445.332751166	11.5	705.49			3	4	1	1	98	40	700	750	68864.853522125	68865.018463333	68865.183515666	68865.363515666	68865.543432666
69428.488982583	5.35	0	69429.988982583	5.346429457989871		69445.33890725	69433.835412041	69433.83898258301	69445.33898258301	69433.83550525	69445.332751166	11.5	695.88			3	4	1	1	98	40	700	750	68864.853522125	68865.018463333	68865.183515666	68865.363515666	68865.543432666
69428.488982583	5.35	0	69430.738982583	5.346429457989871		69445.33890725	69433.835412041	69433.83898258301	69445.33898258301	69433.83550525	69445.332751166	11.5	703.5			3	4	1	1	98	40	700	750	68864.853522125	68865.018463333	68865.183515666	68865.363515666	68865.543432666
69428.488982583	5.35	1	69431.488982583	5.346429457989871		69445.33890725	69433.835412041	69433.83898258301	69445.33898258301	69433.83550525	69445.332751166	11.5	751.9			3	4	1	1	98	40	700	750	68864.853522125	68865.018463333	68865.183515666	68865.363515666	68865.543432666
69428.488982583	5.35	0	69432.238982583	5.346429457989871		69445.33890725	69433.835412041	69433.83898258301	69445.33898258301	69433.83550525	69445.332751166	11.5	713.48			3	4	1	1	98	40	700	750	68864.853522125	68865.018463333	68865.183515666	68865.363515666	68865.543432666
69428.488982583	5.35	0	69432.988982583	5.346429457989871		69445.33890725	69433.835412041	69433.83898258301	69445.33898258301	69433.83550525	69445.332751166	11.5	732.74			3	4	1	1	98	40	700	750	68864.853522125	68865.018463333	68865.183515666	68865.363515666	68865.543432666
69428.488982583	5.35	0	69433.738982583	5.346429457989871		69445.33890725	69433.835412041	69433.83898258301	69445.33898258301	69433.83550525	69445.332751166	11.5	722.91			3	4	1	1	98	40	700	750	68864.853522125	68865.018463333	68865.183515666	68865.363515666	68865.543432666
69445.352032166	5.35	0	69445.352032166	5.347278874993208		69458.701973	69450.699311041	69450.70203216601	69458.70203216601	69450.699418666	69458.700647916	8.0	729.37			3	3	0	1	99	40	700	750	68864.853522125	68865.018463333	68865.183515666	68865.363515666	68865.543432666
69445.352032166	5.35	0	69446.102032166	5.347278874993208		69458.701973	69450.699311041	69450.70203216601	69458.70203216601	69450.699418666	69458.700647916	8.0	731.69			3	3	0	1	99	40	700	750	68864.853522125	68865.018463333	68865.183515666	68865.363515666	68865.543432666
69445.352032166	5.35	0	69446.852032166	5.347278874993208		69458.701973	69450.699311041	69450.70203216601	69458.70203216601	69450.699418666	69458.700647916	8.0	715.19			3	3	0	1	99	40	700	750	68864.853522125	68865.018463333	68865.183515666	68865.363515666	68865.543432666
69445.352032166	5.35	1	69447.602032166	5.347278874993208		69458.701973	69450.699311041	69450.70203216601	69458.70203216601	69450.699418666	69458.700647916	8.0	744.91			3	3	0	1	99	40	700	750	68864.853522125	68865.018463333	68865.183515666	68865.363515666	68865.543432666
69445.352032166	5.35	0	69448.352032166	5.347278874993208		69458.701973	69450.699311041	69450.70203216601	69458.70203216601	69450.699418666	69458.700647916	8.0	699.57			3	3	0	1	99	40	700	750	68864.853522125	68865.018463333	68865.183515666	68865.363515666	68865.543432666
69445.352032166	5.35	0	69449.102032166	5.347278874993208		69458.701973	69450.699311041	69450.70203216601	69458.70203216601	69450.699418666	69458.700647916	8.0	696.31			3	3	0	1	99	40	700	750	68864.853522125	68865.018463333	68865.183515666	68865.363515666	68865.543432666
69445.352032166	5.35	0	69449.852032166	5.347278874993208		69458.701973	69450.699311041	69450.70203216601	69458.70203216601	69450.699418666	69458.700647916	8.0	707.09			3	3	0	1	99	40	700	750	68864.853522125	68865.018463333	68865.183515666	68865.363515666	68865.543432666
69445.352032166	5.35	0	69450.602032166	5.347278874993208		69458.701973	69450.699311041	69450.70203216601	69458.70203216601	69450.699418666	69458.700647916	8.0	682.96			3	3	0	1	99	40	700	750	68864.853522125	68865.018463333	68865.183515666	68865.363515666	68865.543432666
69458.722285416	5.35	0	69458.722285416	5.347094541997649		69473.572220333	69464.069379958	69464.07228541601	69473.57228541601	69464.069481875	69473.568854	9.5	663.89			3	3	0	1	100	40	700	750	68864.853522125	68865.018463333	68865.183515666	68865.363515666	68865.543432666
69458.722285416	5.35	0	69459.472285416	5.347094541997649		69473.572220333	69464.069379958	69464.07228541601	69473.57228541601	69464.069481875	69473.568854	9.5	680.4			3	3	0	1	100	40	700	750	68864.853522125	68865.018463333	68865.183515666	68865.363515666	68865.543432666
69458.722285416	5.35	0	69460.222285416	5.347094541997649		69473.572220333	69464.069379958	69464.07228541601	69473.57228541601	69464.069481875	69473.568854	9.5	665.35			3	3	0	1	100	40	700	750	68864.853522125	68865.018463333	68865.183515666	68865.363515666	68865.543432666
69458.722285416	5.35	1	69460.972285416	5.347094541997649		69473.572220333	69464.069379958	69464.07228541601	69473.57228541601	69464.069481875	69473.568854	9.5	721.51			3	3	0	1	100	40	700	750	68864.853522125	68865.018463333	68865.183515666	68865.363515666	68865.543432666
69458.722285416	5.35	0	69461.722285416	5.347094541997649		69473.572220333	69464.069379958	69464.07228541601	69473.57228541601	69464.069481875	69473.568854	9.5	638.83			3	3	0	1	100	40	700	750	68864.853522125	68865.018463333	68865.183515666	68865.363515666	68865.543432666
69458.722285416	5.35	0	69462.472285416	5.347094541997649		69473.572220333	69464.069379958	69464.07228541601	69473.57228541601	69464.069481875	69473.568854	9.5	645.69			3	3	0	1	100	40	700	750	68864.853522125	68865.018463333	68865.183515666	68865.363515666	68865.543432666
69458.722285416	5.35	0	69463.222285416	5.347094541997649		69473.572220333	69464.069379958	69464.07228541601	69473.57228541601	69464.069481875	69473.568854	9.5	632.12			3	3	0	1	100	40	700	750	68864.853522125	68865.018463333	68865.183515666	68865.363515666	68865.543432666
69458.722285416	5.35	0	69463.972285416	5.347094541997649		69473.572220333	69464.069379958	69464.07228541601	69473.57228541601	69464.069481875	69473.568854	9.5	642.98			3	3	0	1	100	40	700	750	68864.853522125	68865.018463333	68865.183515666	68865.363515666	68865.543432666
69473.58847029101	5.35	0	69473.58847029101	5.3471054999827174		69488.43840575	69478.935575791	69478.93847029102	69488.43847029102	69478.935666041	69488.435112166	9.5	629.21			3	2	0	1	101	40	700	750	68864.853522125	68865.018463333	68865.183515666	68865.363515666	68865.543432666
69473.58847029101	5.35	0	69474.33847029101	5.3471054999827174		69488.43840575	69478.935575791	69478.93847029102	69488.43847029102	69478.935666041	69488.435112166	9.5	634.18			3	2	0	1	101	40	700	750	68864.853522125	68865.018463333	68865.183515666	68865.363515666	68865.543432666
69473.58847029101	5.35	1	69475.08847029101	5.3471054999827174		69488.43840575	69478.935575791	69478.93847029102	69488.43847029102	69478.935666041	69488.435112166	9.5	721.45			3	2	0	1	101	40	700	750	68864.853522125	68865.018463333	68865.183515666	68865.363515666	68865.543432666
69473.58847029101	5.35	0	69475.83847029101	5.3471054999827174		69488.43840575	69478.935575791	69478.93847029102	69488.43847029102	69478.935666041	69488.435112166	9.5	631.36			3	2	0	1	101	40	700	750	68864.853522125	68865.018463333	68865.183515666	68865.363515666	68865.543432666
69473.58847029101	5.35	0	69476.58847029101	5.3471054999827174		69488.43840575	69478.935575791	69478.93847029102	69488.43847029102	69478.935666041	69488.435112166	9.5	609.99			3	2	0	1	101	40	700	750	68864.853522125	68865.018463333	68865.183515666	68865.363515666	68865.543432666
69473.58847029101	5.35	0	69477.33847029101	5.3471054999827174		69488.43840575	69478.935575791	69478.93847029102	69488.43847029102	69478.935666041	69488.435112166	9.5	644.16			3	2	0	1	101	40	700	750	68864.853522125	68865.018463333	68865.183515666	68865.363515666	68865.543432666
69473.58847029101	5.35	0	69478.08847029101	5.3471054999827174		69488.43840575	69478.935575791	69478.93847029102	69488.43847029102	69478.935666041	69488.435112166	9.5	646.78			3	2	0	1	101	40	700	750	68864.853522125	68865.018463333	68865.183515666	68865.363515666	68865.543432666
69473.58847029101	5.35	0	69478.83847029101	5.3471054999827174		69488.43840575	69478.935575791	69478.93847029102	69488.43847029102	69478.935666041	69488.435112166	9.5	612.31			3	2	0	1	101	40	700	750	68864.853522125	68865.018463333	68865.183515666	68865.363515666	68865.543432666
69488.454968166	5.35	0	69488.454968166	5.348380625000573		69503.304906083	69493.803348791	69493.804968166	69503.304968166	69493.803443875	69503.3017385	9.5	625.71			3	4	0	1	102	40	700	750	68864.853522125	68865.018463333	68865.183515666	68865.363515666	68865.543432666
69488.454968166	5.35	0	69489.204968166	5.348380625000573		69503.304906083	69493.803348791	69493.804968166	69503.304968166	69493.803443875	69503.3017385	9.5	628.66			3	4	0	1	102	40	700	750	68864.853522125	68865.018463333	68865.183515666	68865.363515666	68865.543432666
69488.454968166	5.35	0	69489.954968166	5.348380625000573		69503.304906083	69493.803348791	69493.804968166	69503.304968166	69493.803443875	69503.3017385	9.5	613.13			3	4	0	1	102	40	700	750	68864.853522125	68865.018463333	68865.183515666	68865.363515666	68865.543432666
69488.454968166	5.35	0	69490.704968166	5.348380625000573		69503.304906083	69493.803348791	69493.804968166	69503.304968166	69493.803443875	69503.3017385	9.5	632.79			3	4	0	1	102	40	700	750	68864.853522125	68865.018463333	68865.183515666	68865.363515666	68865.543432666
69488.454968166	5.35	1	69491.454968166	5.348380625000573		69503.304906083	69493.803348791	69493.804968166	69503.304968166	69493.803443875	69503.3017385	9.5	730.7			3	4	0	1	102	40	700	750	68864.853522125	68865.018463333	68865.183515666	68865.363515666	68865.543432666
69488.454968166	5.35	0	69492.204968166	5.348380625000573		69503.304906083	69493.803348791	69493.804968166	69503.304968166	69493.803443875	69503.3017385	9.5	620.58			3	4	0	1	102	40	700	750	68864.853522125	68865.018463333	68865.183515666	68865.363515666	68865.543432666
69488.454968166	5.35	0	69492.954968166	5.348380625000573		69503.304906083	69493.803348791	69493.804968166	69503.304968166	69493.803443875	69503.3017385	9.5	639.31			3	4	0	1	102	40	700	750	68864.853522125	68865.018463333	68865.183515666	68865.363515666	68865.543432666
69488.454968166	5.35	0	69493.704968166	5.348380625000573		69503.304906083	69493.803348791	69493.804968166	69503.304968166	69493.803443875	69503.3017385	9.5	620.56			3	4	0	1	102	40	700	750	68864.853522125	68865.018463333	68865.183515666	68865.363515666	68865.543432666
69503.3220935	5.35	0	69503.3220935	5.347255208005663		69515.674103791	69508.669348708	69508.6720935	69515.6720935	69508.669453333	69515.668567083	7.0	673.22			3	6	1	1	103	40	700	750	68864.853522125	68865.018463333	68865.183515666	68865.363515666	68865.543432666
69503.3220935	5.35	0	69504.0720935	5.347255208005663		69515.674103791	69508.669348708	69508.6720935	69515.6720935	69508.669453333	69515.668567083	7.0	680.19			3	6	1	1	103	40	700	750	68864.853522125	68865.018463333	68865.183515666	68865.363515666	68865.543432666
69503.3220935	5.35	0	69504.8220935	5.347255208005663		69515.674103791	69508.669348708	69508.6720935	69515.6720935	69508.669453333	69515.668567083	7.0	671.08			3	6	1	1	103	40	700	750	68864.853522125	68865.018463333	68865.183515666	68865.363515666	68865.543432666
69503.3220935	5.35	0	69505.5720935	5.347255208005663		69515.674103791	69508.669348708	69508.6720935	69515.6720935	69508.669453333	69515.668567083	7.0	672.26			3	6	1	1	103	40	700	750	68864.853522125	68865.018463333	68865.183515666	68865.363515666	68865.543432666
69503.3220935	5.35	0	69506.3220935	5.347255208005663		69515.674103791	69508.669348708	69508.6720935	69515.6720935	69508.669453333	69515.668567083	7.0	685.95			3	6	1	1	103	40	700	750	68864.853522125	68865.018463333	68865.183515666	68865.363515666	68865.543432666
69503.3220935	5.35	0	69507.0720935	5.347255208005663		69515.674103791	69508.669348708	69508.6720935	69515.6720935	69508.669453333	69515.668567083	7.0	675.34			3	6	1	1	103	40	700	750	68864.853522125	68865.018463333	68865.183515666	68865.363515666	68865.543432666
69503.3220935	5.35	1	69507.8220935	5.347255208005663		69515.674103791	69508.669348708	69508.6720935	69515.6720935	69508.669453333	69515.668567083	7.0	767.4			3	6	1	1	103	40	700	750	68864.853522125	68865.018463333	68865.183515666	68865.363515666	68865.543432666
69503.3220935	5.35	0	69508.5720935	5.347255208005663		69515.674103791	69508.669348708	69508.6720935	69515.6720935	69508.669453333	69515.668567083	7.0	667.39			3	6	1	1	103	40	700	750	68864.853522125	68865.018463333	68865.183515666	68865.363515666	68865.543432666
69515.68816620801	5.35	0	69515.68816620801	5.345049832991208		69528.038114875	69521.033216041	69521.03816620802	69528.03816620802	69521.033288083	69528.034883833	7.0	685.03			4	0	2	1	104	40	700	750	68864.853522125	68865.018463333	68865.183515666	68865.363515666	68865.543432666
69515.68816620801	5.35	0	69516.43816620801	5.345049832991208		69528.038114875	69521.033216041	69521.03816620802	69528.03816620802	69521.033288083	69528.034883833	7.0	673.24			4	0	2	1	104	40	700	750	68864.853522125	68865.018463333	68865.183515666	68865.363515666	68865.543432666
69515.68816620801	5.35	0	69517.18816620801	5.345049832991208		69528.038114875	69521.033216041	69521.03816620802	69528.03816620802	69521.033288083	69528.034883833	7.0	663.41			4	0	2	1	104	40	700	750	68864.853522125	68865.018463333	68865.183515666	68865.363515666	68865.543432666
69515.68816620801	5.35	0	69517.93816620801	5.345049832991208		69528.038114875	69521.033216041	69521.03816620802	69528.03816620802	69521.033288083	69528.034883833	7.0	646.64			4	0	2	1	104	40	700	750	68864.853522125	68865.018463333	68865.183515666	68865.363515666	68865.543432666
69515.68816620801	5.35	0	69518.68816620801	5.345049832991208		69528.038114875	69521.033216041	69521.03816620802	69528.03816620802	69521.033288083	69528.034883833	7.0	664.56			4	0	2	1	104	40	700	750	68864.853522125	68865.018463333	68865.183515666	68865.363515666	68865.543432666
69515.68816620801	5.35	0	69519.43816620801	5.345049832991208		69528.038114875	69521.033216041	69521.03816620802	69528.03816620802	69521.033288083	69528.034883833	7.0	683.74			4	0	2	1	104	40	700	750	68864.853522125	68865.018463333	68865.183515666	68865.363515666	68865.543432666
69515.68816620801	5.35	0	69520.18816620801	5.345049832991208		69528.038114875	69521.033216041	69521.03816620802	69528.03816620802	69521.033288083	69528.034883833	7.0	682.86			4	0	2	1	104	40	700	750	68864.853522125	68865.018463333	68865.183515666	68865.363515666	68865.543432666
69515.68816620801	5.35	0	69520.93816620801	5.345049832991208		69528.038114875	69521.033216041	69521.03816620802	69528.03816620802	69521.033288083	69528.034883833	7.0	668.85			4	0	2	1	104	40	700	750	68864.853522125	68865.018463333	68865.183515666	68865.363515666	68865.543432666
69528.055302291	5.35	0	69528.055302291	5.344453083991539		69544.905232208	69533.399755375	69533.40530229101	69544.90530229101	69533.399836416	69544.902047833	11.5	673.36			3	4	1	1	105	40	700	750	68864.853522125	68865.018463333	68865.183515666	68865.363515666	68865.543432666
