onset	duration	trial_type	onset_tone	duration_imprecise	response_time_imprecise	offset_trial	offset_sound_imprecise	onset_iti	offset_iti	onset_iti_imprecise	offset_iti_imprecise	ITI	frequency	key_pressed	confidence	correct	dpos	rule	runs	trial_no	tau_std	lim_std	lim_dev	trigger_time_1	trigger_time_2	trigger_time_3	trigger_time_4	trigger_time_5
67999.55793787501	5.35	0	67999.55793787501	5.348296249983832	0.519837625004584	68015.909050458	68004.906234125	68004.90793787502	68015.90793787502	68004.9063235	68015.907864458	11.0	996.36	l		0	4	1	0	0	16	1000	1050	67998.637443208	67999.017631708	67999.182567583	67999.3477165	67999.512705291
67999.55793787501	5.35	0	68000.30793787501	5.348296249983832	0.519837625004584	68015.909050458	68004.906234125	68004.90793787502	68015.90793787502	68004.9063235	68015.907864458	11.0	987.67	l		0	4	1	0	0	16	1000	1050	67998.637443208	67999.017631708	67999.182567583	67999.3477165	67999.512705291
67999.55793787501	5.35	0	68001.05793787501	5.348296249983832	0.519837625004584	68015.909050458	68004.906234125	68004.90793787502	68015.90793787502	68004.9063235	68015.907864458	11.0	969.6	l		0	4	1	0	0	16	1000	1050	67998.637443208	67999.017631708	67999.182567583	67999.3477165	67999.512705291
67999.55793787501	5.35	0	68001.80793787501	5.348296249983832	0.519837625004584	68015.909050458	68004.906234125	68004.90793787502	68015.90793787502	68004.9063235	68015.907864458	11.0	999.07	l		0	4	1	0	0	16	1000	1050	67998.637443208	67999.017631708	67999.182567583	67999.3477165	67999.512705291
67999.55793787501	5.35	1	68002.55793787501	5.348296249983832	0.519837625004584	68015.909050458	68004.906234125	68004.90793787502	68015.90793787502	68004.9063235	68015.907864458	11.0	1039.19	l		0	4	1	0	0	16	1000	1050	67998.637443208	67999.017631708	67999.182567583	67999.3477165	67999.512705291
67999.55793787501	5.35	0	68003.30793787501	5.348296249983832	0.519837625004584	68015.909050458	68004.906234125	68004.90793787502	68015.90793787502	68004.9063235	68015.907864458	11.0	981.85	l		0	4	1	0	0	16	1000	1050	67998.637443208	67999.017631708	67999.182567583	67999.3477165	67999.512705291
67999.55793787501	5.35	0	68004.05793787501	5.348296249983832	0.519837625004584	68015.909050458	68004.906234125	68004.90793787502	68015.90793787502	68004.9063235	68015.907864458	11.0	965.77	l		0	4	1	0	0	16	1000	1050	67998.637443208	67999.017631708	67999.182567583	67999.3477165	67999.512705291
67999.55793787501	5.35	0	68004.80793787501	5.348296249983832	0.519837625004584	68015.909050458	68004.906234125	68004.90793787502	68015.90793787502	68004.9063235	68015.907864458	11.0	987.02	l		0	4	1	0	0	16	1000	1050	67998.637443208	67999.017631708	67999.182567583	67999.3477165	67999.512705291
68015.927175375	5.35	0	68015.927175375	5.347547582990956	0.6967605420068139	68028.777117166	68021.274722958	68021.27717537501	68028.77717537501	68021.274803208	68028.774285916	7.5	993.28	l	34	0	5	1	0	1	16	1000	1050	67998.637443208	67999.017631708	67999.182567583	67999.3477165	67999.512705291
68015.927175375	5.35	0	68016.677175375	5.347547582990956	0.6967605420068139	68028.777117166	68021.274722958	68021.27717537501	68028.77717537501	68021.274803208	68028.774285916	7.5	1006.65	l	34	0	5	1	0	1	16	1000	1050	67998.637443208	67999.017631708	67999.182567583	67999.3477165	67999.512705291
68015.927175375	5.35	0	68017.427175375	5.347547582990956	0.6967605420068139	68028.777117166	68021.274722958	68021.27717537501	68028.77717537501	68021.274803208	68028.774285916	7.5	1010.62	l	34	0	5	1	0	1	16	1000	1050	67998.637443208	67999.017631708	67999.182567583	67999.3477165	67999.512705291
68015.927175375	5.35	0	68018.177175375	5.347547582990956	0.6967605420068139	68028.777117166	68021.274722958	68021.27717537501	68028.77717537501	68021.274803208	68028.774285916	7.5	997.6	l	34	0	5	1	0	1	16	1000	1050	67998.637443208	67999.017631708	67999.182567583	67999.3477165	67999.512705291
68015.927175375	5.35	0	68018.927175375	5.347547582990956	0.6967605420068139	68028.777117166	68021.274722958	68021.27717537501	68028.77717537501	68021.274803208	68028.774285916	7.5	997.78	l	34	0	5	1	0	1	16	1000	1050	67998.637443208	67999.017631708	67999.182567583	67999.3477165	67999.512705291
68015.927175375	5.35	1	68019.677175375	5.347547582990956	0.6967605420068139	68028.777117166	68021.274722958	68021.27717537501	68028.77717537501	68021.274803208	68028.774285916	7.5	1038.23	l	34	0	5	1	0	1	16	1000	1050	67998.637443208	67999.017631708	67999.182567583	67999.3477165	67999.512705291
68015.927175375	5.35	0	68020.427175375	5.347547582990956	0.6967605420068139	68028.777117166	68021.274722958	68021.27717537501	68028.77717537501	68021.274803208	68028.774285916	7.5	1012.81	l	34	0	5	1	0	1	16	1000	1050	67998.637443208	67999.017631708	67999.182567583	67999.3477165	67999.512705291
68015.927175375	5.35	0	68021.177175375	5.347547582990956	0.6967605420068139	68028.777117166	68021.274722958	68021.27717537501	68028.77717537501	68021.274803208	68028.774285916	7.5	1031.83	l	34	0	5	1	0	1	16	1000	1050	67998.637443208	67999.017631708	67999.182567583	67999.3477165	67999.512705291
68028.793679583	5.35	0	68028.793679583	5.347769792002509		68045.643600583	68034.141449375	68034.14367958301	68045.64367958301	68034.141535333	68045.640564333	11.5	1019.88			3	5	1	0	2	16	1000	1050	67998.637443208	67999.017631708	67999.182567583	67999.3477165	67999.512705291
68028.793679583	5.35	0	68029.543679583	5.347769792002509		68045.643600583	68034.141449375	68034.14367958301	68045.64367958301	68034.141535333	68045.640564333	11.5	1003.53			3	5	1	0	2	16	1000	1050	67998.637443208	67999.017631708	67999.182567583	67999.3477165	67999.512705291
68028.793679583	5.35	0	68030.293679583	5.347769792002509		68045.643600583	68034.141449375	68034.14367958301	68045.64367958301	68034.141535333	68045.640564333	11.5	1030.88			3	5	1	0	2	16	1000	1050	67998.637443208	67999.017631708	67999.182567583	67999.3477165	67999.512705291
68028.793679583	5.35	0	68031.043679583	5.347769792002509		68045.643600583	68034.141449375	68034.14367958301	68045.64367958301	68034.141535333	68045.640564333	11.5	1020.6			3	5	1	0	2	16	1000	1050	67998.637443208	67999.017631708	67999.182567583	67999.3477165	67999.512705291
68028.793679583	5.35	0	68031.793679583	5.347769792002509		68045.643600583	68034.141449375	68034.14367958301	68045.64367958301	68034.141535333	68045.640564333	11.5	1032.7			3	5	1	0	2	16	1000	1050	67998.637443208	67999.017631708	67999.182567583	67999.3477165	67999.512705291
68028.793679583	5.35	1	68032.543679583	5.347769792002509		68045.643600583	68034.141449375	68034.14367958301	68045.64367958301	68034.141535333	68045.640564333	11.5	1079.17			3	5	1	0	2	16	1000	1050	67998.637443208	67999.017631708	67999.182567583	67999.3477165	67999.512705291
68028.793679583	5.35	0	68033.293679583	5.347769792002509		68045.643600583	68034.141449375	68034.14367958301	68045.64367958301	68034.141535333	68045.640564333	11.5	1025.33			3	5	1	0	2	16	1000	1050	67998.637443208	67999.017631708	67999.182567583	67999.3477165	67999.512705291
68028.793679583	5.35	0	68034.043679583	5.347769792002509		68045.643600583	68034.141449375	68034.14367958301	68045.64367958301	68034.141535333	68045.640564333	11.5	1001.12			3	5	1	0	2	16	1000	1050	67998.637443208	67999.017631708	67999.182567583	67999.3477165	67999.512705291
68045.658913	5.35	0	68045.658913	5.349217540991958		68058.508853333	68051.008130541	68051.00891300001	68058.50891300001	68051.008234875	68058.505868041	7.5	1002.94			3	6	1	0	3	16	1000	1050	67998.637443208	67999.017631708	67999.182567583	67999.3477165	67999.512705291
68045.658913	5.35	0	68046.408913	5.349217540991958		68058.508853333	68051.008130541	68051.00891300001	68058.50891300001	68051.008234875	68058.505868041	7.5	1008.48			3	6	1	0	3	16	1000	1050	67998.637443208	67999.017631708	67999.182567583	67999.3477165	67999.512705291
68045.658913	5.35	0	68047.158913	5.349217540991958		68058.508853333	68051.008130541	68051.00891300001	68058.50891300001	68051.008234875	68058.505868041	7.5	994.45			3	6	1	0	3	16	1000	1050	67998.637443208	67999.017631708	67999.182567583	67999.3477165	67999.512705291
68045.658913	5.35	0	68047.908913	5.349217540991958		68058.508853333	68051.008130541	68051.00891300001	68058.50891300001	68051.008234875	68058.505868041	7.5	988.95			3	6	1	0	3	16	1000	1050	67998.637443208	67999.017631708	67999.182567583	67999.3477165	67999.512705291
68045.658913	5.35	0	68048.658913	5.349217540991958		68058.508853333	68051.008130541	68051.00891300001	68058.50891300001	68051.008234875	68058.505868041	7.5	1013.27			3	6	1	0	3	16	1000	1050	67998.637443208	67999.017631708	67999.182567583	67999.3477165	67999.512705291
68045.658913	5.35	0	68049.408913	5.349217540991958		68058.508853333	68051.008130541	68051.00891300001	68058.50891300001	68051.008234875	68058.505868041	7.5	1009.73			3	6	1	0	3	16	1000	1050	67998.637443208	67999.017631708	67999.182567583	67999.3477165	67999.512705291
68045.658913	5.35	1	68050.158913	5.349217540991958		68058.508853333	68051.008130541	68051.00891300001	68058.50891300001	68051.008234875	68058.505868041	7.5	1069.87			3	6	1	0	3	16	1000	1050	67998.637443208	67999.017631708	67999.182567583	67999.3477165	67999.512705291
68045.658913	5.35	0	68050.908913	5.349217540991958		68058.508853333	68051.008130541	68051.00891300001	68058.50891300001	68051.008234875	68058.505868041	7.5	987.32			3	6	1	0	3	16	1000	1050	67998.637443208	67999.017631708	67999.182567583	67999.3477165	67999.512705291
68058.52666575	5.35	0	68058.52666575	5.347333500001696		68070.87660775	68063.87399925	68063.87666575001	68070.87666575001	68063.874070041	68070.874535416	7.0	985.49			4	0	2	0	4	16	1000	1050	67998.637443208	67999.017631708	67999.182567583	67999.3477165	67999.512705291
68058.52666575	5.35	0	68059.27666575	5.347333500001696		68070.87660775	68063.87399925	68063.87666575001	68070.87666575001	68063.874070041	68070.874535416	7.0	970.27			4	0	2	0	4	16	1000	1050	67998.637443208	67999.017631708	67999.182567583	67999.3477165	67999.512705291
68058.52666575	5.35	0	68060.02666575	5.347333500001696		68070.87660775	68063.87399925	68063.87666575001	68070.87666575001	68063.874070041	68070.874535416	7.0	987.64			4	0	2	0	4	16	1000	1050	67998.637443208	67999.017631708	67999.182567583	67999.3477165	67999.512705291
68058.52666575	5.35	0	68060.77666575	5.347333500001696		68070.87660775	68063.87399925	68063.87666575001	68070.87666575001	68063.874070041	68070.874535416	7.0	986.49			4	0	2	0	4	16	1000	1050	67998.637443208	67999.017631708	67999.182567583	67999.3477165	67999.512705291
68058.52666575	5.35	0	68061.52666575	5.347333500001696		68070.87660775	68063.87399925	68063.87666575001	68070.87666575001	68063.874070041	68070.874535416	7.0	1014.92			4	0	2	0	4	16	1000	1050	67998.637443208	67999.017631708	67999.182567583	67999.3477165	67999.512705291
68058.52666575	5.35	0	68062.27666575	5.347333500001696		68070.87660775	68063.87399925	68063.87666575001	68070.87666575001	68063.874070041	68070.874535416	7.0	1004.05			4	0	2	0	4	16	1000	1050	67998.637443208	67999.017631708	67999.182567583	67999.3477165	67999.512705291
68058.52666575	5.35	0	68063.02666575	5.347333500001696		68070.87660775	68063.87399925	68063.87666575001	68070.87666575001	68063.874070041	68070.874535416	7.0	1007.13			4	0	2	0	4	16	1000	1050	67998.637443208	67999.017631708	67999.182567583	67999.3477165	67999.512705291
68058.52666575	5.35	0	68063.77666575	5.347333500001696		68070.87660775	68063.87399925	68063.87666575001	68070.87666575001	68063.874070041	68070.874535416	7.0	1008.86			4	0	2	0	4	16	1000	1050	67998.637443208	67999.017631708	67999.182567583	67999.3477165	67999.512705291
68070.893795166	5.35	0	68070.893795166	5.345647083988297		68085.743726208	68076.23944225	68076.24379516601	68085.74379516601	68076.239508	68085.740913375	9.5	1007.91			3	6	1	0	5	16	1000	1050	67998.637443208	67999.017631708	67999.182567583	67999.3477165	67999.512705291
68070.893795166	5.35	0	68071.643795166	5.345647083988297		68085.743726208	68076.23944225	68076.24379516601	68085.74379516601	68076.239508	68085.740913375	9.5	999.91			3	6	1	0	5	16	1000	1050	67998.637443208	67999.017631708	67999.182567583	67999.3477165	67999.512705291
68070.893795166	5.35	0	68072.393795166	5.345647083988297		68085.743726208	68076.23944225	68076.24379516601	68085.74379516601	68076.239508	68085.740913375	9.5	986.22			3	6	1	0	5	16	1000	1050	67998.637443208	67999.017631708	67999.182567583	67999.3477165	67999.512705291
68070.893795166	5.35	0	68073.143795166	5.345647083988297		68085.743726208	68076.23944225	68076.24379516601	68085.74379516601	68076.239508	68085.740913375	9.5	1020.11			3	6	1	0	5	16	1000	1050	67998.637443208	67999.017631708	67999.182567583	67999.3477165	67999.512705291
68070.893795166	5.35	0	68073.893795166	5.345647083988297		68085.743726208	68076.23944225	68076.24379516601	68085.74379516601	68076.239508	68085.740913375	9.5	1022.0			3	6	1	0	5	16	1000	1050	67998.637443208	67999.017631708	67999.182567583	67999.3477165	67999.512705291
68070.893795166	5.35	0	68074.643795166	5.345647083988297		68085.743726208	68076.23944225	68076.24379516601	68085.74379516601	68076.239508	68085.740913375	9.5	1010.02			3	6	1	0	5	16	1000	1050	67998.637443208	67999.017631708	67999.182567583	67999.3477165	67999.512705291
68070.893795166	5.35	1	68075.393795166	5.345647083988297		68085.743726208	68076.23944225	68076.24379516601	68085.74379516601	68076.239508	68085.740913375	9.5	1039.99			3	6	1	0	5	16	1000	1050	67998.637443208	67999.017631708	67999.182567583	67999.3477165	67999.512705291
68070.893795166	5.35	0	68076.143795166	5.345647083988297		68085.743726208	68076.23944225	68076.24379516601	68085.74379516601	68076.239508	68085.740913375	9.5	992.02			3	6	1	0	5	16	1000	1050	67998.637443208	67999.017631708	67999.182567583	67999.3477165	67999.512705291
68085.758726125	5.35	0	68085.758726125	5.349194915994303		68100.108659041	68091.107921041	68091.108726125	68100.108726125	68091.108003875	68100.107402125	9.0	1010.69			3	6	1	0	6	16	1000	1050	67998.637443208	67999.017631708	67999.182567583	67999.3477165	67999.512705291
68085.758726125	5.35	0	68086.508726125	5.349194915994303		68100.108659041	68091.107921041	68091.108726125	68100.108726125	68091.108003875	68100.107402125	9.0	1009.26			3	6	1	0	6	16	1000	1050	67998.637443208	67999.017631708	67999.182567583	67999.3477165	67999.512705291
68085.758726125	5.35	0	68087.258726125	5.349194915994303		68100.108659041	68091.107921041	68091.108726125	68100.108726125	68091.108003875	68100.107402125	9.0	1004.93			3	6	1	0	6	16	1000	1050	67998.637443208	67999.017631708	67999.182567583	67999.3477165	67999.512705291
68085.758726125	5.35	0	68088.008726125	5.349194915994303		68100.108659041	68091.107921041	68091.108726125	68100.108726125	68091.108003875	68100.107402125	9.0	1024.8			3	6	1	0	6	16	1000	1050	67998.637443208	67999.017631708	67999.182567583	67999.3477165	67999.512705291
68085.758726125	5.35	0	68088.758726125	5.349194915994303		68100.108659041	68091.107921041	68091.108726125	68100.108726125	68091.108003875	68100.107402125	9.0	1003.33			3	6	1	0	6	16	1000	1050	67998.637443208	67999.017631708	67999.182567583	67999.3477165	67999.512705291
68085.758726125	5.35	0	68089.508726125	5.349194915994303		68100.108659041	68091.107921041	68091.108726125	68100.108726125	68091.108003875	68100.107402125	9.0	1017.82			3	6	1	0	6	16	1000	1050	67998.637443208	67999.017631708	67999.182567583	67999.3477165	67999.512705291
68085.758726125	5.35	1	68090.258726125	5.349194915994303		68100.108659041	68091.107921041	68091.108726125	68100.108726125	68091.108003875	68100.107402125	9.0	1050.72			3	6	1	0	6	16	1000	1050	67998.637443208	67999.017631708	67999.182567583	67999.3477165	67999.512705291
68085.758726125	5.35	0	68091.008726125	5.349194915994303		68100.108659041	68091.107921041	68091.108726125	68100.108726125	68091.108003875	68100.107402125	9.0	1041.84			3	6	1	0	6	16	1000	1050	67998.637443208	67999.017631708	67999.182567583	67999.3477165	67999.512705291
68100.127096458	5.35	0	68100.127096458	5.346927416991093		68112.47703924999	68105.474023875	68105.47709645801	68112.47709645801	68105.474093208	68112.473972375	7.0	1014.57			3	4	1	0	7	16	1000	1050	67998.637443208	67999.017631708	67999.182567583	67999.3477165	67999.512705291
68100.127096458	5.35	0	68100.877096458	5.346927416991093		68112.47703924999	68105.474023875	68105.47709645801	68112.47709645801	68105.474093208	68112.473972375	7.0	1021.38			3	4	1	0	7	16	1000	1050	67998.637443208	67999.017631708	67999.182567583	67999.3477165	67999.512705291
68100.127096458	5.35	0	68101.627096458	5.346927416991093		68112.47703924999	68105.474023875	68105.47709645801	68112.47709645801	68105.474093208	68112.473972375	7.0	1021.27			3	4	1	0	7	16	1000	1050	67998.637443208	67999.017631708	67999.182567583	67999.3477165	67999.512705291
68100.127096458	5.35	0	68102.377096458	5.346927416991093		68112.47703924999	68105.474023875	68105.47709645801	68112.47709645801	68105.474093208	68112.473972375	7.0	1008.17			3	4	1	0	7	16	1000	1050	67998.637443208	67999.017631708	67999.182567583	67999.3477165	67999.512705291
68100.127096458	5.35	1	68103.127096458	5.346927416991093		68112.47703924999	68105.474023875	68105.47709645801	68112.47709645801	68105.474093208	68112.473972375	7.0	1087.84			3	4	1	0	7	16	1000	1050	67998.637443208	67999.017631708	67999.182567583	67999.3477165	67999.512705291
68100.127096458	5.35	0	68103.877096458	5.346927416991093		68112.47703924999	68105.474023875	68105.47709645801	68112.47709645801	68105.474093208	68112.473972375	7.0	1016.19			3	4	1	0	7	16	1000	1050	67998.637443208	67999.017631708	67999.182567583	67999.3477165	67999.512705291
68100.127096458	5.35	0	68104.627096458	5.346927416991093		68112.47703924999	68105.474023875	68105.47709645801	68112.47709645801	68105.474093208	68112.473972375	7.0	991.62			3	4	1	0	7	16	1000	1050	67998.637443208	67999.017631708	67999.182567583	67999.3477165	67999.512705291
68100.127096458	5.35	0	68105.377096458	5.346927416991093		68112.47703924999	68105.474023875	68105.47709645801	68112.47709645801	68105.474093208	68112.473972375	7.0	985.53			3	4	1	0	7	16	1000	1050	67998.637443208	67999.017631708	67999.182567583	67999.3477165	67999.512705291
68112.493601666	5.35	0	68112.493601666	5.3468335419893265		68126.843535583	68117.840435208	68117.84360166601	68126.84360166601	68117.840514416	68126.840400166	9.0	980.08			3	3	0	0	8	16	1000	1050	67998.637443208	67999.017631708	67999.182567583	67999.3477165	67999.512705291
68112.493601666	5.35	0	68113.243601666	5.3468335419893265		68126.843535583	68117.840435208	68117.84360166601	68126.84360166601	68117.840514416	68126.840400166	9.0	979.11			3	3	0	0	8	16	1000	1050	67998.637443208	67999.017631708	67999.182567583	67999.3477165	67999.512705291
68112.493601666	5.35	0	68113.993601666	5.3468335419893265		68126.843535583	68117.840435208	68117.84360166601	68126.84360166601	68117.840514416	68126.840400166	9.0	978.71			3	3	0	0	8	16	1000	1050	67998.637443208	67999.017631708	67999.182567583	67999.3477165	67999.512705291
68112.493601666	5.35	1	68114.743601666	5.3468335419893265		68126.843535583	68117.840435208	68117.84360166601	68126.84360166601	68117.840514416	68126.840400166	9.0	1083.82			3	3	0	0	8	16	1000	1050	67998.637443208	67999.017631708	67999.182567583	67999.3477165	67999.512705291
68112.493601666	5.35	0	68115.493601666	5.3468335419893265		68126.843535583	68117.840435208	68117.84360166601	68126.84360166601	68117.840514416	68126.840400166	9.0	965.96			3	3	0	0	8	16	1000	1050	67998.637443208	67999.017631708	67999.182567583	67999.3477165	67999.512705291
68112.493601666	5.35	0	68116.243601666	5.3468335419893265		68126.843535583	68117.840435208	68117.84360166601	68126.84360166601	68117.840514416	68126.840400166	9.0	964.66			3	3	0	0	8	16	1000	1050	67998.637443208	67999.017631708	67999.182567583	67999.3477165	67999.512705291
68112.493601666	5.35	0	68116.993601666	5.3468335419893265		68126.843535583	68117.840435208	68117.84360166601	68126.84360166601	68117.840514416	68126.840400166	9.0	961.66			3	3	0	0	8	16	1000	1050	67998.637443208	67999.017631708	67999.182567583	67999.3477165	67999.512705291
68112.493601666	5.35	0	68117.743601666	5.3468335419893265		68126.843535583	68117.840435208	68117.84360166601	68126.84360166601	68117.840514416	68126.840400166	9.0	958.2			3	3	0	0	8	16	1000	1050	67998.637443208	67999.017631708	67999.182567583	67999.3477165	67999.512705291
68126.86009804101	5.35	0	68126.86009804101	5.347313083984773	0.46757558301032986	68140.2100365	68132.207411125	68132.21009804102	68140.21009804102	68132.207506791	68140.207334583	8.0	970.94	l	86	0	2	0	0	9	16	1000	1050	67998.637443208	67999.017631708	67999.182567583	67999.3477165	67999.512705291
68126.86009804101	5.35	0	68127.61009804101	5.347313083984773	0.46757558301032986	68140.2100365	68132.207411125	68132.21009804102	68140.21009804102	68132.207506791	68140.207334583	8.0	965.73	l	86	0	2	0	0	9	16	1000	1050	67998.637443208	67999.017631708	67999.182567583	67999.3477165	67999.512705291
68126.86009804101	5.35	1	68128.36009804101	5.347313083984773	0.46757558301032986	68140.2100365	68132.207411125	68132.21009804102	68140.21009804102	68132.207506791	68140.207334583	8.0	1067.43	l	86	0	2	0	0	9	16	1000	1050	67998.637443208	67999.017631708	67999.182567583	67999.3477165	67999.512705291
68126.86009804101	5.35	0	68129.11009804101	5.347313083984773	0.46757558301032986	68140.2100365	68132.207411125	68132.21009804102	68140.21009804102	68132.207506791	68140.207334583	8.0	988.56	l	86	0	2	0	0	9	16	1000	1050	67998.637443208	67999.017631708	67999.182567583	67999.3477165	67999.512705291
68126.86009804101	5.35	0	68129.86009804101	5.347313083984773	0.46757558301032986	68140.2100365	68132.207411125	68132.21009804102	68140.21009804102	68132.207506791	68140.207334583	8.0	982.97	l	86	0	2	0	0	9	16	1000	1050	67998.637443208	67999.017631708	67999.182567583	67999.3477165	67999.512705291
68126.86009804101	5.35	0	68130.61009804101	5.347313083984773	0.46757558301032986	68140.2100365	68132.207411125	68132.21009804102	68140.21009804102	68132.207506791	68140.207334583	8.0	995.14	l	86	0	2	0	0	9	16	1000	1050	67998.637443208	67999.017631708	67999.182567583	67999.3477165	67999.512705291
68126.86009804101	5.35	0	68131.36009804101	5.347313083984773	0.46757558301032986	68140.2100365	68132.207411125	68132.21009804102	68140.21009804102	68132.207506791	68140.207334583	8.0	1002.36	l	86	0	2	0	0	9	16	1000	1050	67998.637443208	67999.017631708	67999.182567583	67999.3477165	67999.512705291
68126.86009804101	5.35	0	68132.11009804101	5.347313083984773	0.46757558301032986	68140.2100365	68132.207411125	68132.21009804102	68140.21009804102	68132.207506791	68140.207334583	8.0	1008.04	l	86	0	2	0	0	9	16	1000	1050	67998.637443208	67999.017631708	67999.182567583	67999.3477165	67999.512705291
68140.22659891601	5.35	0	68140.22659891601	5.348972874999163		68154.576533208	68145.575571791	68145.57659891601	68154.57659891601	68145.575660291	68154.576473083	9.0	1012.44			3	3	0	0	10	16	1000	1050	67998.637443208	67999.017631708	67999.182567583	67999.3477165	67999.512705291
68140.22659891601	5.35	0	68140.97659891601	5.348972874999163		68154.576533208	68145.575571791	68145.57659891601	68154.57659891601	68145.575660291	68154.576473083	9.0	1011.68			3	3	0	0	10	16	1000	1050	67998.637443208	67999.017631708	67999.182567583	67999.3477165	67999.512705291
68140.22659891601	5.35	0	68141.72659891601	5.348972874999163		68154.576533208	68145.575571791	68145.57659891601	68154.57659891601	68145.575660291	68154.576473083	9.0	1037.51			3	3	0	0	10	16	1000	1050	67998.637443208	67999.017631708	67999.182567583	67999.3477165	67999.512705291
68140.22659891601	5.35	1	68142.47659891601	5.348972874999163		68154.576533208	68145.575571791	68145.57659891601	68154.57659891601	68145.575660291	68154.576473083	9.0	1047.87			3	3	0	0	10	16	1000	1050	67998.637443208	67999.017631708	67999.182567583	67999.3477165	67999.512705291
68140.22659891601	5.35	0	68143.22659891601	5.348972874999163		68154.576533208	68145.575571791	68145.57659891601	68154.57659891601	68145.575660291	68154.576473083	9.0	1016.5			3	3	0	0	10	16	1000	1050	67998.637443208	67999.017631708	67999.182567583	67999.3477165	67999.512705291
68140.22659891601	5.35	0	68143.97659891601	5.348972874999163		68154.576533208	68145.575571791	68145.57659891601	68154.57659891601	68145.575660291	68154.576473083	9.0	999.25			3	3	0	0	10	16	1000	1050	67998.637443208	67999.017631708	67999.182567583	67999.3477165	67999.512705291
68140.22659891601	5.35	0	68144.72659891601	5.348972874999163		68154.576533208	68145.575571791	68145.57659891601	68154.57659891601	68145.575660291	68154.576473083	9.0	1032.99			3	3	0	0	10	16	1000	1050	67998.637443208	67999.017631708	67999.182567583	67999.3477165	67999.512705291
68140.22659891601	5.35	0	68145.47659891601	5.348972874999163		68154.576533208	68145.575571791	68145.57659891601	68154.57659891601	68145.575660291	68154.576473083	9.0	1023.66			3	3	0	0	10	16	1000	1050	67998.637443208	67999.017631708	67999.182567583	67999.3477165	67999.512705291
68154.58559566601	5.35	0	68154.58559566601	5.347868416996789		68170.935522	68159.933464083	68159.93559566601	68170.93559566601	68159.933536291	68170.932150583	11.0	1029.74			3	3	0	0	11	16	1000	1050	67998.637443208	67999.017631708	67999.182567583	67999.3477165	67999.512705291
68154.58559566601	5.35	0	68155.33559566601	5.347868416996789		68170.935522	68159.933464083	68159.93559566601	68170.93559566601	68159.933536291	68170.932150583	11.0	1051.14			3	3	0	0	11	16	1000	1050	67998.637443208	67999.017631708	67999.182567583	67999.3477165	67999.512705291
68154.58559566601	5.35	0	68156.08559566601	5.347868416996789		68170.935522	68159.933464083	68159.93559566601	68170.93559566601	68159.933536291	68170.932150583	11.0	1021.61			3	3	0	0	11	16	1000	1050	67998.637443208	67999.017631708	67999.182567583	67999.3477165	67999.512705291
68154.58559566601	5.35	1	68156.83559566601	5.347868416996789		68170.935522	68159.933464083	68159.93559566601	68170.93559566601	68159.933536291	68170.932150583	11.0	1036.05			3	3	0	0	11	16	1000	1050	67998.637443208	67999.017631708	67999.182567583	67999.3477165	67999.512705291
68154.58559566601	5.35	0	68157.58559566601	5.347868416996789		68170.935522	68159.933464083	68159.93559566601	68170.93559566601	68159.933536291	68170.932150583	11.0	1024.02			3	3	0	0	11	16	1000	1050	67998.637443208	67999.017631708	67999.182567583	67999.3477165	67999.512705291
68154.58559566601	5.35	0	68158.33559566601	5.347868416996789		68170.935522	68159.933464083	68159.93559566601	68170.93559566601	68159.933536291	68170.932150583	11.0	1022.23			3	3	0	0	11	16	1000	1050	67998.637443208	67999.017631708	67999.182567583	67999.3477165	67999.512705291
68154.58559566601	5.35	0	68159.08559566601	5.347868416996789		68170.935522	68159.933464083	68159.93559566601	68170.93559566601	68159.933536291	68170.932150583	11.0	1026.77			3	3	0	0	11	16	1000	1050	67998.637443208	67999.017631708	67999.182567583	67999.3477165	67999.512705291
68154.58559566601	5.35	0	68159.83559566601	5.347868416996789		68170.935522	68159.933464083	68159.93559566601	68170.93559566601	68159.933536291	68170.932150583	11.0	1030.78			3	3	0	0	11	16	1000	1050	67998.637443208	67999.017631708	67999.182567583	67999.3477165	67999.512705291
68170.943334458	5.35	0	68170.943334458	5.346910249994835		68185.793268125	68176.290244708	68176.29333445801	68185.79333445801	68176.290331625	68185.793330166	9.5	1005.41			3	3	0	0	12	16	1000	1050	67998.637443208	67999.017631708	67999.182567583	67999.3477165	67999.512705291
68170.943334458	5.35	0	68171.693334458	5.346910249994835		68185.793268125	68176.290244708	68176.29333445801	68185.79333445801	68176.290331625	68185.793330166	9.5	1010.44			3	3	0	0	12	16	1000	1050	67998.637443208	67999.017631708	67999.182567583	67999.3477165	67999.512705291
68170.943334458	5.35	0	68172.443334458	5.346910249994835		68185.793268125	68176.290244708	68176.29333445801	68185.79333445801	68176.290331625	68185.793330166	9.5	1048.33			3	3	0	0	12	16	1000	1050	67998.637443208	67999.017631708	67999.182567583	67999.3477165	67999.512705291
68170.943334458	5.35	1	68173.193334458	5.346910249994835		68185.793268125	68176.290244708	68176.29333445801	68185.79333445801	68176.290331625	68185.793330166	9.5	1039.9			3	3	0	0	12	16	1000	1050	67998.637443208	67999.017631708	67999.182567583	67999.3477165	67999.512705291
68170.943334458	5.35	0	68173.943334458	5.346910249994835		68185.793268125	68176.290244708	68176.29333445801	68185.79333445801	68176.290331625	68185.793330166	9.5	1026.66			3	3	0	0	12	16	1000	1050	67998.637443208	67999.017631708	67999.182567583	67999.3477165	67999.512705291
68170.943334458	5.35	0	68174.693334458	5.346910249994835		68185.793268125	68176.290244708	68176.29333445801	68185.79333445801	68176.290331625	68185.793330166	9.5	1043.48			3	3	0	0	12	16	1000	1050	67998.637443208	67999.017631708	67999.182567583	67999.3477165	67999.512705291
68170.943334458	5.35	0	68175.443334458	5.346910249994835		68185.793268125	68176.290244708	68176.29333445801	68185.79333445801	68176.290331625	68185.793330166	9.5	1053.76			3	3	0	0	12	16	1000	1050	67998.637443208	67999.017631708	67999.182567583	67999.3477165	67999.512705291
68170.943334458	5.35	0	68176.193334458	5.346910249994835		68185.793268125	68176.290244708	68176.29333445801	68185.79333445801	68176.290331625	68185.793330166	9.5	1034.42			3	3	0	0	12	16	1000	1050	67998.637443208	67999.017631708	67999.182567583	67999.3477165	67999.512705291
68185.80108058301	5.35	0	68185.80108058301	5.349697874989943		68199.65101837499	68191.150778458	68191.15108058302	68199.65108058302	68191.15085625	68199.649512916	8.5	1043.46			4	0	2	0	13	16	1000	1050	67998.637443208	67999.017631708	67999.182567583	67999.3477165	67999.512705291
68185.80108058301	5.35	0	68186.55108058301	5.349697874989943		68199.65101837499	68191.150778458	68191.15108058302	68199.65108058302	68191.15085625	68199.649512916	8.5	1036.03			4	0	2	0	13	16	1000	1050	67998.637443208	67999.017631708	67999.182567583	67999.3477165	67999.512705291
68185.80108058301	5.35	0	68187.30108058301	5.349697874989943		68199.65101837499	68191.150778458	68191.15108058302	68199.65108058302	68191.15085625	68199.649512916	8.5	1045.31			4	0	2	0	13	16	1000	1050	67998.637443208	67999.017631708	67999.182567583	67999.3477165	67999.512705291
68185.80108058301	5.35	0	68188.05108058301	5.349697874989943		68199.65101837499	68191.150778458	68191.15108058302	68199.65108058302	68191.15085625	68199.649512916	8.5	1048.95			4	0	2	0	13	16	1000	1050	67998.637443208	67999.017631708	67999.182567583	67999.3477165	67999.512705291
68185.80108058301	5.35	0	68188.80108058301	5.349697874989943		68199.65101837499	68191.150778458	68191.15108058302	68199.65108058302	68191.15085625	68199.649512916	8.5	1036.91			4	0	2	0	13	16	1000	1050	67998.637443208	67999.017631708	67999.182567583	67999.3477165	67999.512705291
68185.80108058301	5.35	0	68189.55108058301	5.349697874989943		68199.65101837499	68191.150778458	68191.15108058302	68199.65108058302	68191.15085625	68199.649512916	8.5	1054.61			4	0	2	0	13	16	1000	1050	67998.637443208	67999.017631708	67999.182567583	67999.3477165	67999.512705291
68185.80108058301	5.35	0	68190.30108058301	5.349697874989943		68199.65101837499	68191.150778458	68191.15108058302	68199.65108058302	68191.15085625	68199.649512916	8.5	1038.04			4	0	2	0	13	16	1000	1050	67998.637443208	67999.017631708	67999.182567583	67999.3477165	67999.512705291
68185.80108058301	5.35	0	68191.05108058301	5.349697874989943		68199.65101837499	68191.150778458	68191.15108058302	68199.65108058302	68191.15085625	68199.649512916	8.5	1043.37			4	0	2	0	13	16	1000	1050	67998.637443208	67999.017631708	67999.182567583	67999.3477165	67999.512705291
68199.659768333	5.35	0	68199.659768333	5.348178166997968		68215.00970125	68205.0079465	68205.00976833301	68215.00976833301	68205.008026666	68215.008036416	10.0	1043.02			3	4	0	0	14	16	1000	1050	67998.637443208	67999.017631708	67999.182567583	67999.3477165	67999.512705291
68199.659768333	5.35	0	68200.409768333	5.348178166997968		68215.00970125	68205.0079465	68205.00976833301	68215.00976833301	68205.008026666	68215.008036416	10.0	1075.89			3	4	0	0	14	16	1000	1050	67998.637443208	67999.017631708	67999.182567583	67999.3477165	67999.512705291
68199.659768333	5.35	0	68201.159768333	5.348178166997968		68215.00970125	68205.0079465	68205.00976833301	68215.00976833301	68205.008026666	68215.008036416	10.0	1061.19			3	4	0	0	14	16	1000	1050	67998.637443208	67999.017631708	67999.182567583	67999.3477165	67999.512705291
68199.659768333	5.35	0	68201.909768333	5.348178166997968		68215.00970125	68205.0079465	68205.00976833301	68215.00976833301	68205.008026666	68215.008036416	10.0	1028.34			3	4	0	0	14	16	1000	1050	67998.637443208	67999.017631708	67999.182567583	67999.3477165	67999.512705291
68199.659768333	5.35	1	68202.659768333	5.348178166997968		68215.00970125	68205.0079465	68205.00976833301	68215.00976833301	68205.008026666	68215.008036416	10.0	1043.74			3	4	0	0	14	16	1000	1050	67998.637443208	67999.017631708	67999.182567583	67999.3477165	67999.512705291
68199.659768333	5.35	0	68203.409768333	5.348178166997968		68215.00970125	68205.0079465	68205.00976833301	68215.00976833301	68205.008026666	68215.008036416	10.0	1057.59			3	4	0	0	14	16	1000	1050	67998.637443208	67999.017631708	67999.182567583	67999.3477165	67999.512705291
68199.659768333	5.35	0	68204.159768333	5.348178166997968		68215.00970125	68205.0079465	68205.00976833301	68215.00976833301	68205.008026666	68215.008036416	10.0	1068.33			3	4	0	0	14	16	1000	1050	67998.637443208	67999.017631708	67999.182567583	67999.3477165	67999.512705291
68199.659768333	5.35	0	68204.909768333	5.348178166997968		68215.00970125	68205.0079465	68205.00976833301	68215.00976833301	68205.008026666	68215.008036416	10.0	1058.44			3	4	0	0	14	16	1000	1050	67998.637443208	67999.017631708	67999.182567583	67999.3477165	67999.512705291
68215.01532625001	5.35	0	68215.01532625001	5.34802745799243		68230.865258666	68220.363353708	68220.36532625002	68230.86532625002	68220.363430083	68230.864179083	10.5	1058.27			3	4	0	0	15	16	1000	1050	67998.637443208	67999.017631708	67999.182567583	67999.3477165	67999.512705291
68215.01532625001	5.35	0	68215.76532625001	5.34802745799243		68230.865258666	68220.363353708	68220.36532625002	68230.86532625002	68220.363430083	68230.864179083	10.5	1064.76			3	4	0	0	15	16	1000	1050	67998.637443208	67999.017631708	67999.182567583	67999.3477165	67999.512705291
68215.01532625001	5.35	0	68216.51532625001	5.34802745799243		68230.865258666	68220.363353708	68220.36532625002	68230.86532625002	68220.363430083	68230.864179083	10.5	1034.84			3	4	0	0	15	16	1000	1050	67998.637443208	67999.017631708	67999.182567583	67999.3477165	67999.512705291
68215.01532625001	5.35	0	68217.26532625001	5.34802745799243		68230.865258666	68220.363353708	68220.36532625002	68230.86532625002	68220.363430083	68230.864179083	10.5	1026.34			3	4	0	0	15	16	1000	1050	67998.637443208	67999.017631708	67999.182567583	67999.3477165	67999.512705291
68215.01532625001	5.35	1	68218.01532625001	5.34802745799243		68230.865258666	68220.363353708	68220.36532625002	68230.86532625002	68220.363430083	68230.864179083	10.5	1051.0			3	4	0	0	15	16	1000	1050	67998.637443208	67999.017631708	67999.182567583	67999.3477165	67999.512705291
68215.01532625001	5.35	0	68218.76532625001	5.34802745799243		68230.865258666	68220.363353708	68220.36532625002	68230.86532625002	68220.363430083	68230.864179083	10.5	1053.88			3	4	0	0	15	16	1000	1050	67998.637443208	67999.017631708	67999.182567583	67999.3477165	67999.512705291
68215.01532625001	5.35	0	68219.51532625001	5.34802745799243		68230.865258666	68220.363353708	68220.36532625002	68230.86532625002	68220.363430083	68230.864179083	10.5	1034.0			3	4	0	0	15	16	1000	1050	67998.637443208	67999.017631708	67999.182567583	67999.3477165	67999.512705291
68215.01532625001	5.35	0	68220.26532625001	5.34802745799243		68230.865258666	68220.363353708	68220.36532625002	68230.86532625002	68220.363430083	68230.864179083	10.5	1035.7			3	4	0	0	15	16	1000	1050	67998.637443208	67999.017631708	67999.182567583	67999.3477165	67999.512705291
68230.87307112501	5.35	0	68230.87307112501	5.349504915982834		68243.723016708	68236.222576041	68236.22307112502	68243.72307112502	68236.222661625	68243.721323625	7.5	1019.64			3	4	0	0	16	16	1000	1050	67998.637443208	67999.017631708	67999.182567583	67999.3477165	67999.512705291
68230.87307112501	5.35	0	68231.62307112501	5.349504915982834		68243.723016708	68236.222576041	68236.22307112502	68243.72307112502	68236.222661625	68243.721323625	7.5	997.39			3	4	0	0	16	16	1000	1050	67998.637443208	67999.017631708	67999.182567583	67999.3477165	67999.512705291
68230.87307112501	5.35	0	68232.37307112501	5.349504915982834		68243.723016708	68236.222576041	68236.22307112502	68243.72307112502	68236.222661625	68243.721323625	7.5	1030.73			3	4	0	0	16	16	1000	1050	67998.637443208	67999.017631708	67999.182567583	67999.3477165	67999.512705291
68230.87307112501	5.35	0	68233.12307112501	5.349504915982834		68243.723016708	68236.222576041	68236.22307112502	68243.72307112502	68236.222661625	68243.721323625	7.5	1010.87			3	4	0	0	16	16	1000	1050	67998.637443208	67999.017631708	67999.182567583	67999.3477165	67999.512705291
68230.87307112501	5.35	1	68233.87307112501	5.349504915982834		68243.723016708	68236.222576041	68236.22307112502	68243.72307112502	68236.222661625	68243.721323625	7.5	1053.99			3	4	0	0	16	16	1000	1050	67998.637443208	67999.017631708	67999.182567583	67999.3477165	67999.512705291
68230.87307112501	5.35	0	68234.62307112501	5.349504915982834		68243.723016708	68236.222576041	68236.22307112502	68243.72307112502	68236.222661625	68243.721323625	7.5	1019.29			3	4	0	0	16	16	1000	1050	67998.637443208	67999.017631708	67999.182567583	67999.3477165	67999.512705291
68230.87307112501	5.35	0	68235.37307112501	5.349504915982834		68243.723016708	68236.222576041	68236.22307112502	68243.72307112502	68236.222661625	68243.721323625	7.5	999.55			3	4	0	0	16	16	1000	1050	67998.637443208	67999.017631708	67999.182567583	67999.3477165	67999.512705291
68230.87307112501	5.35	0	68236.12307112501	5.349504915982834		68243.723016708	68236.222576041	68236.22307112502	68243.72307112502	68236.222661625	68243.721323625	7.5	1015.23			3	4	0	0	16	16	1000	1050	67998.637443208	67999.017631708	67999.182567583	67999.3477165	67999.512705291
68243.729266666	5.35	0	68243.729266666	5.349731583992252		68256.079213375	68249.07899825	68249.07926666601	68256.07926666601	68249.0790955	68256.079230875	7.0	987.95			3	4	0	0	17	16	1000	1050	67998.637443208	67999.017631708	67999.182567583	67999.3477165	67999.512705291
68243.729266666	5.35	0	68244.479266666	5.349731583992252		68256.079213375	68249.07899825	68249.07926666601	68256.07926666601	68249.0790955	68256.079230875	7.0	988.7			3	4	0	0	17	16	1000	1050	67998.637443208	67999.017631708	67999.182567583	67999.3477165	67999.512705291
68243.729266666	5.35	0	68245.229266666	5.349731583992252		68256.079213375	68249.07899825	68249.07926666601	68256.07926666601	68249.0790955	68256.079230875	7.0	981.76			3	4	0	0	17	16	1000	1050	67998.637443208	67999.017631708	67999.182567583	67999.3477165	67999.512705291
68243.729266666	5.35	0	68245.979266666	5.349731583992252		68256.079213375	68249.07899825	68249.07926666601	68256.07926666601	68249.0790955	68256.079230875	7.0	968.73			3	4	0	0	17	16	1000	1050	67998.637443208	67999.017631708	67999.182567583	67999.3477165	67999.512705291
68243.729266666	5.35	1	68246.729266666	5.349731583992252		68256.079213375	68249.07899825	68249.07926666601	68256.07926666601	68249.0790955	68256.079230875	7.0	1049.55			3	4	0	0	17	16	1000	1050	67998.637443208	67999.017631708	67999.182567583	67999.3477165	67999.512705291
68243.729266666	5.35	0	68247.479266666	5.349731583992252		68256.079213375	68249.07899825	68249.07926666601	68256.07926666601	68249.0790955	68256.079230875	7.0	980.17			3	4	0	0	17	16	1000	1050	67998.637443208	67999.017631708	67999.182567583	67999.3477165	67999.512705291
68243.729266666	5.35	0	68248.229266666	5.349731583992252		68256.079213375	68249.07899825	68249.07926666601	68256.07926666601	68249.0790955	68256.079230875	7.0	962.25			3	4	0	0	17	16	1000	1050	67998.637443208	67999.017631708	67999.182567583	67999.3477165	67999.512705291
68243.729266666	5.35	0	68248.979266666	5.349731583992252		68256.079213375	68249.07899825	68249.07926666601	68256.07926666601	68249.0790955	68256.079230875	7.0	967.13			3	4	0	0	17	16	1000	1050	67998.637443208	67999.017631708	67999.182567583	67999.3477165	67999.512705291
68256.086713333	5.35	0	68256.086713333	5.347975875003613		68269.936655875	68261.434689208	68261.43671333301	68269.93671333301	68261.434778666	68269.934708791	8.5	977.84			3	5	1	0	18	16	1000	1050	67998.637443208	67999.017631708	67999.182567583	67999.3477165	67999.512705291
68256.086713333	5.35	0	68256.836713333	5.347975875003613		68269.936655875	68261.434689208	68261.43671333301	68269.93671333301	68261.434778666	68269.934708791	8.5	1000.97			3	5	1	0	18	16	1000	1050	67998.637443208	67999.017631708	67999.182567583	67999.3477165	67999.512705291
68256.086713333	5.35	0	68257.586713333	5.347975875003613		68269.936655875	68261.434689208	68261.43671333301	68269.93671333301	68261.434778666	68269.934708791	8.5	1006.9			3	5	1	0	18	16	1000	1050	67998.637443208	67999.017631708	67999.182567583	67999.3477165	67999.512705291
68256.086713333	5.35	0	68258.336713333	5.347975875003613		68269.936655875	68261.434689208	68261.43671333301	68269.93671333301	68261.434778666	68269.934708791	8.5	983.38			3	5	1	0	18	16	1000	1050	67998.637443208	67999.017631708	67999.182567583	67999.3477165	67999.512705291
68256.086713333	5.35	0	68259.086713333	5.347975875003613		68269.936655875	68261.434689208	68261.43671333301	68269.93671333301	68261.434778666	68269.934708791	8.5	992.42			3	5	1	0	18	16	1000	1050	67998.637443208	67999.017631708	67999.182567583	67999.3477165	67999.512705291
68256.086713333	5.35	1	68259.836713333	5.347975875003613		68269.936655875	68261.434689208	68261.43671333301	68269.93671333301	68261.434778666	68269.934708791	8.5	1027.1			3	5	1	0	18	16	1000	1050	67998.637443208	67999.017631708	67999.182567583	67999.3477165	67999.512705291
68256.086713333	5.35	0	68260.586713333	5.347975875003613		68269.936655875	68261.434689208	68261.43671333301	68269.93671333301	68261.434778666	68269.934708791	8.5	976.75			3	5	1	0	18	16	1000	1050	67998.637443208	67999.017631708	67999.182567583	67999.3477165	67999.512705291
68256.086713333	5.35	0	68261.336713333	5.347975875003613		68269.936655875	68261.434689208	68261.43671333301	68269.93671333301	68261.434778666	68269.934708791	8.5	998.51			3	5	1	0	18	16	1000	1050	67998.637443208	67999.017631708	67999.182567583	67999.3477165	67999.512705291
68269.943218333	5.35	0	68269.943218333	5.348608499989496		68282.793165291	68275.291826833	68275.29321833301	68282.79321833301	68275.291930125	68282.791404	7.5	1004.89			4	0	2	0	19	16	1000	1050	67998.637443208	67999.017631708	67999.182567583	67999.3477165	67999.512705291
68269.943218333	5.35	0	68270.693218333	5.348608499989496		68282.793165291	68275.291826833	68275.29321833301	68282.79321833301	68275.291930125	68282.791404	7.5	1009.07			4	0	2	0	19	16	1000	1050	67998.637443208	67999.017631708	67999.182567583	67999.3477165	67999.512705291
68269.943218333	5.35	0	68271.443218333	5.348608499989496		68282.793165291	68275.291826833	68275.29321833301	68282.79321833301	68275.291930125	68282.791404	7.5	1005.38			4	0	2	0	19	16	1000	1050	67998.637443208	67999.017631708	67999.182567583	67999.3477165	67999.512705291
68269.943218333	5.35	0	68272.193218333	5.348608499989496		68282.793165291	68275.291826833	68275.29321833301	68282.79321833301	68275.291930125	68282.791404	7.5	1011.49			4	0	2	0	19	16	1000	1050	67998.637443208	67999.017631708	67999.182567583	67999.3477165	67999.512705291
68269.943218333	5.35	0	68272.943218333	5.348608499989496		68282.793165291	68275.291826833	68275.29321833301	68282.79321833301	68275.291930125	68282.791404	7.5	1015.7			4	0	2	0	19	16	1000	1050	67998.637443208	67999.017631708	67999.182567583	67999.3477165	67999.512705291
68269.943218333	5.35	0	68273.693218333	5.348608499989496		68282.793165291	68275.291826833	68275.29321833301	68282.79321833301	68275.291930125	68282.791404	7.5	1013.12			4	0	2	0	19	16	1000	1050	67998.637443208	67999.017631708	67999.182567583	67999.3477165	67999.512705291
68269.943218333	5.35	0	68274.443218333	5.348608499989496		68282.793165291	68275.291826833	68275.29321833301	68282.79321833301	68275.291930125	68282.791404	7.5	995.83			4	0	2	0	19	16	1000	1050	67998.637443208	67999.017631708	67999.182567583	67999.3477165	67999.512705291
68269.943218333	5.35	0	68275.193218333	5.348608499989496		68282.793165291	68275.291826833	68275.29321833301	68282.79321833301	68275.291930125	68282.791404	7.5	982.67			4	0	2	0	19	16	1000	1050	67998.637443208	67999.017631708	67999.182567583	67999.3477165	67999.512705291
68282.80160275001	5.35	0	68282.80160275001	5.348239957980695		68299.151537875	68288.149842708	68288.15160275002	68299.15160275002	68288.149981958	68299.150546875	11.0	1004.51			3	5	1	0	20	16	1000	1050	67998.637443208	67999.017631708	67999.182567583	67999.3477165	67999.512705291
68282.80160275001	5.35	0	68283.55160275001	5.348239957980695		68299.151537875	68288.149842708	68288.15160275002	68299.15160275002	68288.149981958	68299.150546875	11.0	978.48			3	5	1	0	20	16	1000	1050	67998.637443208	67999.017631708	67999.182567583	67999.3477165	67999.512705291
68282.80160275001	5.35	0	68284.30160275001	5.348239957980695		68299.151537875	68288.149842708	68288.15160275002	68299.15160275002	68288.149981958	68299.150546875	11.0	1002.5			3	5	1	0	20	16	1000	1050	67998.637443208	67999.017631708	67999.182567583	67999.3477165	67999.512705291
68282.80160275001	5.35	0	68285.05160275001	5.348239957980695		68299.151537875	68288.149842708	68288.15160275002	68299.15160275002	68288.149981958	68299.150546875	11.0	949.51			3	5	1	0	20	16	1000	1050	67998.637443208	67999.017631708	67999.182567583	67999.3477165	67999.512705291
68282.80160275001	5.35	0	68285.80160275001	5.348239957980695		68299.151537875	68288.149842708	68288.15160275002	68299.15160275002	68288.149981958	68299.150546875	11.0	965.22			3	5	1	0	20	16	1000	1050	67998.637443208	67999.017631708	67999.182567583	67999.3477165	67999.512705291
68282.80160275001	5.35	1	68286.55160275001	5.348239957980695		68299.151537875	68288.149842708	68288.15160275002	68299.15160275002	68288.149981958	68299.150546875	11.0	1069.92			3	5	1	0	20	16	1000	1050	67998.637443208	67999.017631708	67999.182567583	67999.3477165	67999.512705291
68282.80160275001	5.35	0	68287.30160275001	5.348239957980695		68299.151537875	68288.149842708	68288.15160275002	68299.15160275002	68288.149981958	68299.150546875	11.0	1012.39			3	5	1	0	20	16	1000	1050	67998.637443208	67999.017631708	67999.182567583	67999.3477165	67999.512705291
68282.80160275001	5.35	0	68288.05160275001	5.348239957980695		68299.151537875	68288.149842708	68288.15160275002	68299.15160275002	68288.149981958	68299.150546875	11.0	998.32			3	5	1	0	20	16	1000	1050	67998.637443208	67999.017631708	67999.182567583	67999.3477165	67999.512705291
68299.158412833	5.35	0	68299.158412833	5.348362958000507		68312.008360833	68304.506775791	68304.508412833	68312.008412833	68304.506862125	68312.005945833	7.5	977.06			3	6	1	0	21	16	1000	1050	67998.637443208	67999.017631708	67999.182567583	67999.3477165	67999.512705291
68299.158412833	5.35	0	68299.908412833	5.348362958000507		68312.008360833	68304.506775791	68304.508412833	68312.008412833	68304.506862125	68312.005945833	7.5	985.59			3	6	1	0	21	16	1000	1050	67998.637443208	67999.017631708	67999.182567583	67999.3477165	67999.512705291
68299.158412833	5.35	0	68300.658412833	5.348362958000507		68312.008360833	68304.506775791	68304.508412833	68312.008412833	68304.506862125	68312.005945833	7.5	980.01			3	6	1	0	21	16	1000	1050	67998.637443208	67999.017631708	67999.182567583	67999.3477165	67999.512705291
68299.158412833	5.35	0	68301.408412833	5.348362958000507		68312.008360833	68304.506775791	68304.508412833	68312.008412833	68304.506862125	68312.005945833	7.5	988.25			3	6	1	0	21	16	1000	1050	67998.637443208	67999.017631708	67999.182567583	67999.3477165	67999.512705291
68299.158412833	5.35	0	68302.158412833	5.348362958000507		68312.008360833	68304.506775791	68304.508412833	68312.008412833	68304.506862125	68312.005945833	7.5	1014.43			3	6	1	0	21	16	1000	1050	67998.637443208	67999.017631708	67999.182567583	67999.3477165	67999.512705291
68299.158412833	5.35	0	68302.908412833	5.348362958000507		68312.008360833	68304.506775791	68304.508412833	68312.008412833	68304.506862125	68312.005945833	7.5	1003.54			3	6	1	0	21	16	1000	1050	67998.637443208	67999.017631708	67999.182567583	67999.3477165	67999.512705291
68299.158412833	5.35	1	68303.658412833	5.348362958000507		68312.008360833	68304.506775791	68304.508412833	68312.008412833	68304.506862125	68312.005945833	7.5	1089.51			3	6	1	0	21	16	1000	1050	67998.637443208	67999.017631708	67999.182567583	67999.3477165	67999.512705291
68299.158412833	5.35	0	68304.408412833	5.348362958000507		68312.008360833	68304.506775791	68304.508412833	68312.008412833	68304.506862125	68312.005945833	7.5	987.43			3	6	1	0	21	16	1000	1050	67998.637443208	67999.017631708	67999.182567583	67999.3477165	67999.512705291
68312.014923291	5.35	0	68312.014923291	5.34904312499566		68328.364858791	68317.363966416	68317.36492329101	68328.36492329101	68317.364044625	68328.363003916	11.0	994.94			3	6	1	0	22	16	1000	1050	67998.637443208	67999.017631708	67999.182567583	67999.3477165	67999.512705291
68312.014923291	5.35	0	68312.764923291	5.34904312499566		68328.364858791	68317.363966416	68317.36492329101	68328.36492329101	68317.364044625	68328.363003916	11.0	1017.98			3	6	1	0	22	16	1000	1050	67998.637443208	67999.017631708	67999.182567583	67999.3477165	67999.512705291
68312.014923291	5.35	0	68313.514923291	5.34904312499566		68328.364858791	68317.363966416	68317.36492329101	68328.36492329101	68317.364044625	68328.363003916	11.0	1014.71			3	6	1	0	22	16	1000	1050	67998.637443208	67999.017631708	67999.182567583	67999.3477165	67999.512705291
68312.014923291	5.35	0	68314.264923291	5.34904312499566		68328.364858791	68317.363966416	68317.36492329101	68328.36492329101	68317.364044625	68328.363003916	11.0	990.79			3	6	1	0	22	16	1000	1050	67998.637443208	67999.017631708	67999.182567583	67999.3477165	67999.512705291
68312.014923291	5.35	0	68315.014923291	5.34904312499566		68328.364858791	68317.363966416	68317.36492329101	68328.36492329101	68317.364044625	68328.363003916	11.0	1011.36			3	6	1	0	22	16	1000	1050	67998.637443208	67999.017631708	67999.182567583	67999.3477165	67999.512705291
68312.014923291	5.35	0	68315.764923291	5.34904312499566		68328.364858791	68317.363966416	68317.36492329101	68328.36492329101	68317.364044625	68328.363003916	11.0	1036.97			3	6	1	0	22	16	1000	1050	67998.637443208	67999.017631708	67999.182567583	67999.3477165	67999.512705291
68312.014923291	5.35	1	68316.514923291	5.34904312499566		68328.364858791	68317.363966416	68317.36492329101	68328.36492329101	68317.364044625	68328.363003916	11.0	1086.69			3	6	1	0	22	16	1000	1050	67998.637443208	67999.017631708	67999.182567583	67999.3477165	67999.512705291
68312.014923291	5.35	0	68317.264923291	5.34904312499566		68328.364858791	68317.363966416	68317.36492329101	68328.36492329101	68317.364044625	68328.363003916	11.0	1025.47			3	6	1	0	22	16	1000	1050	67998.637443208	67999.017631708	67999.182567583	67999.3477165	67999.512705291
68328.371108791	5.35	0	68328.371108791	5.349745958999847		68341.22105895799	68333.72085475	68333.72110879101	68341.22110879101	68333.720933458	68341.220727958	7.5	1014.27			3	4	1	0	23	16	1000	1050	67998.637443208	67999.017631708	67999.182567583	67999.3477165	67999.512705291
68328.371108791	5.35	0	68329.121108791	5.349745958999847		68341.22105895799	68333.72085475	68333.72110879101	68341.22110879101	68333.720933458	68341.220727958	7.5	992.61			3	4	1	0	23	16	1000	1050	67998.637443208	67999.017631708	67999.182567583	67999.3477165	67999.512705291
68328.371108791	5.35	0	68329.871108791	5.349745958999847		68341.22105895799	68333.72085475	68333.72110879101	68341.22110879101	68333.720933458	68341.220727958	7.5	985.89			3	4	1	0	23	16	1000	1050	67998.637443208	67999.017631708	67999.182567583	67999.3477165	67999.512705291
68328.371108791	5.35	0	68330.621108791	5.349745958999847		68341.22105895799	68333.72085475	68333.72110879101	68341.22110879101	68333.720933458	68341.220727958	7.5	982.0			3	4	1	0	23	16	1000	1050	67998.637443208	67999.017631708	67999.182567583	67999.3477165	67999.512705291
68328.371108791	5.35	1	68331.371108791	5.349745958999847		68341.22105895799	68333.72085475	68333.72110879101	68341.22110879101	68333.720933458	68341.220727958	7.5	1067.9			3	4	1	0	23	16	1000	1050	67998.637443208	67999.017631708	67999.182567583	67999.3477165	67999.512705291
68328.371108791	5.35	0	68332.121108791	5.349745958999847		68341.22105895799	68333.72085475	68333.72110879101	68341.22110879101	68333.720933458	68341.220727958	7.5	984.05			3	4	1	0	23	16	1000	1050	67998.637443208	67999.017631708	67999.182567583	67999.3477165	67999.512705291
68328.371108791	5.35	0	68332.871108791	5.349745958999847		68341.22105895799	68333.72085475	68333.72110879101	68341.22110879101	68333.720933458	68341.220727958	7.5	969.41			3	4	1	0	23	16	1000	1050	67998.637443208	67999.017631708	67999.182567583	67999.3477165	67999.512705291
68328.371108791	5.35	0	68333.621108791	5.349745958999847		68341.22105895799	68333.72085475	68333.72110879101	68341.22110879101	68333.720933458	68341.220727958	7.5	979.38			3	4	1	0	23	16	1000	1050	67998.637443208	67999.017631708	67999.182567583	67999.3477165	67999.512705291
68341.229183916	5.35	0	68341.229183916	5.349028583994368		68356.579123916	68346.5782125	68346.57918391601	68356.57918391601	68346.578298458	68356.578250375	10.0	999.75			3	4	1	0	24	16	1000	1050	67998.637443208	67999.017631708	67999.182567583	67999.3477165	67999.512705291
68341.229183916	5.35	0	68341.979183916	5.349028583994368		68356.579123916	68346.5782125	68346.57918391601	68356.57918391601	68346.578298458	68356.578250375	10.0	988.45			3	4	1	0	24	16	1000	1050	67998.637443208	67999.017631708	67999.182567583	67999.3477165	67999.512705291
68341.229183916	5.35	0	68342.729183916	5.349028583994368		68356.579123916	68346.5782125	68346.57918391601	68356.57918391601	68346.578298458	68356.578250375	10.0	990.16			3	4	1	0	24	16	1000	1050	67998.637443208	67999.017631708	67999.182567583	67999.3477165	67999.512705291
68341.229183916	5.35	0	68343.479183916	5.349028583994368		68356.579123916	68346.5782125	68346.57918391601	68356.57918391601	68346.578298458	68356.578250375	10.0	1017.58			3	4	1	0	24	16	1000	1050	67998.637443208	67999.017631708	67999.182567583	67999.3477165	67999.512705291
68341.229183916	5.35	1	68344.229183916	5.349028583994368		68356.579123916	68346.5782125	68346.57918391601	68356.57918391601	68346.578298458	68356.578250375	10.0	1049.73			3	4	1	0	24	16	1000	1050	67998.637443208	67999.017631708	67999.182567583	67999.3477165	67999.512705291
68341.229183916	5.35	0	68344.979183916	5.349028583994368		68356.579123916	68346.5782125	68346.57918391601	68356.57918391601	68346.578298458	68356.578250375	10.0	1017.16			3	4	1	0	24	16	1000	1050	67998.637443208	67999.017631708	67999.182567583	67999.3477165	67999.512705291
68341.229183916	5.35	0	68345.729183916	5.349028583994368		68356.579123916	68346.5782125	68346.57918391601	68356.57918391601	68346.578298458	68356.578250375	10.0	1020.15			3	4	1	0	24	16	1000	1050	67998.637443208	67999.017631708	67999.182567583	67999.3477165	67999.512705291
68341.229183916	5.35	0	68346.479183916	5.349028583994368		68356.579123916	68346.5782125	68346.57918391601	68356.57918391601	68346.578298458	68356.578250375	10.0	1020.87			3	4	1	0	24	16	1000	1050	67998.637443208	67999.017631708	67999.182567583	67999.3477165	67999.512705291
68356.58818637501	5.35	0	68356.58818637501	5.349102249994758		68368.9381375	68361.937288625	68361.93818637502	68368.93818637502	68361.937370791	68368.935717416	7.0	981.94			3	5	1	0	25	16	1000	1050	67998.637443208	67999.017631708	67999.182567583	67999.3477165	67999.512705291
68356.58818637501	5.35	0	68357.33818637501	5.349102249994758		68368.9381375	68361.937288625	68361.93818637502	68368.93818637502	68361.937370791	68368.935717416	7.0	980.64			3	5	1	0	25	16	1000	1050	67998.637443208	67999.017631708	67999.182567583	67999.3477165	67999.512705291
68356.58818637501	5.35	0	68358.08818637501	5.349102249994758		68368.9381375	68361.937288625	68361.93818637502	68368.93818637502	68361.937370791	68368.935717416	7.0	985.92			3	5	1	0	25	16	1000	1050	67998.637443208	67999.017631708	67999.182567583	67999.3477165	67999.512705291
68356.58818637501	5.35	0	68358.83818637501	5.349102249994758		68368.9381375	68361.937288625	68361.93818637502	68368.93818637502	68361.937370791	68368.935717416	7.0	1004.11			3	5	1	0	25	16	1000	1050	67998.637443208	67999.017631708	67999.182567583	67999.3477165	67999.512705291
68356.58818637501	5.35	0	68359.58818637501	5.349102249994758		68368.9381375	68361.937288625	68361.93818637502	68368.93818637502	68361.937370791	68368.935717416	7.0	981.03			3	5	1	0	25	16	1000	1050	67998.637443208	67999.017631708	67999.182567583	67999.3477165	67999.512705291
68356.58818637501	5.35	1	68360.33818637501	5.349102249994758		68368.9381375	68361.937288625	68361.93818637502	68368.93818637502	68361.937370791	68368.935717416	7.0	1042.55			3	5	1	0	25	16	1000	1050	67998.637443208	67999.017631708	67999.182567583	67999.3477165	67999.512705291
68356.58818637501	5.35	0	68361.08818637501	5.349102249994758		68368.9381375	68361.937288625	68361.93818637502	68368.93818637502	68361.937370791	68368.935717416	7.0	1008.31			3	5	1	0	25	16	1000	1050	67998.637443208	67999.017631708	67999.182567583	67999.3477165	67999.512705291
68356.58818637501	5.35	0	68361.83818637501	5.349102249994758		68368.9381375	68361.937288625	68361.93818637502	68368.93818637502	68361.937370791	68368.935717416	7.0	1007.26			3	5	1	0	25	16	1000	1050	67998.637443208	67999.017631708	67999.182567583	67999.3477165	67999.512705291
68368.943762458	5.35	0	68368.943762458	5.3486895419919165		68385.29369866599	68374.292452	68374.29376245801	68385.29376245801	68374.292530208	68385.2921535	11.0	1010.66			3	5	1	0	26	16	1000	1050	67998.637443208	67999.017631708	67999.182567583	67999.3477165	67999.512705291
68368.943762458	5.35	0	68369.693762458	5.3486895419919165		68385.29369866599	68374.292452	68374.29376245801	68385.29376245801	68374.292530208	68385.2921535	11.0	989.1			3	5	1	0	26	16	1000	1050	67998.637443208	67999.017631708	67999.182567583	67999.3477165	67999.512705291
68368.943762458	5.35	0	68370.443762458	5.3486895419919165		68385.29369866599	68374.292452	68374.29376245801	68385.29376245801	68374.292530208	68385.2921535	11.0	1022.0			3	5	1	0	26	16	1000	1050	67998.637443208	67999.017631708	67999.182567583	67999.3477165	67999.512705291
68368.943762458	5.35	0	68371.193762458	5.3486895419919165		68385.29369866599	68374.292452	68374.29376245801	68385.29376245801	68374.292530208	68385.2921535	11.0	1016.63			3	5	1	0	26	16	1000	1050	67998.637443208	67999.017631708	67999.182567583	67999.3477165	67999.512705291
68368.943762458	5.35	0	68371.943762458	5.3486895419919165		68385.29369866599	68374.292452	68374.29376245801	68385.29376245801	68374.292530208	68385.2921535	11.0	1013.68			3	5	1	0	26	16	1000	1050	67998.637443208	67999.017631708	67999.182567583	67999.3477165	67999.512705291
68368.943762458	5.35	1	68372.693762458	5.3486895419919165		68385.29369866599	68374.292452	68374.29376245801	68385.29376245801	68374.292530208	68385.2921535	11.0	1072.35			3	5	1	0	26	16	1000	1050	67998.637443208	67999.017631708	67999.182567583	67999.3477165	67999.512705291
68368.943762458	5.35	0	68373.443762458	5.3486895419919165		68385.29369866599	68374.292452	68374.29376245801	68385.29376245801	68374.292530208	68385.2921535	11.0	1007.61			3	5	1	0	26	16	1000	1050	67998.637443208	67999.017631708	67999.182567583	67999.3477165	67999.512705291
68368.943762458	5.35	0	68374.193762458	5.3486895419919165		68385.29369866599	68374.292452	68374.29376245801	68385.29376245801	68374.292530208	68385.2921535	11.0	1010.48			3	5	1	0	26	16	1000	1050	67998.637443208	67999.017631708	67999.182567583	67999.3477165	67999.512705291
68385.299948625	5.35	0	68385.299948625	5.348238374994253		68402.149881291	68390.648187	68390.64994862501	68402.14994862501	68390.64826375	68402.148421416	11.5	982.16			3	4	1	0	27	16	1000	1050	67998.637443208	67999.017631708	67999.182567583	67999.3477165	67999.512705291
68385.299948625	5.35	0	68386.049948625	5.348238374994253		68402.149881291	68390.648187	68390.64994862501	68402.14994862501	68390.64826375	68402.148421416	11.5	1002.13			3	4	1	0	27	16	1000	1050	67998.637443208	67999.017631708	67999.182567583	67999.3477165	67999.512705291
68385.299948625	5.35	0	68386.799948625	5.348238374994253		68402.149881291	68390.648187	68390.64994862501	68402.14994862501	68390.64826375	68402.148421416	11.5	1014.55			3	4	1	0	27	16	1000	1050	67998.637443208	67999.017631708	67999.182567583	67999.3477165	67999.512705291
68385.299948625	5.35	0	68387.549948625	5.348238374994253		68402.149881291	68390.648187	68390.64994862501	68402.14994862501	68390.64826375	68402.148421416	11.5	988.35			3	4	1	0	27	16	1000	1050	67998.637443208	67999.017631708	67999.182567583	67999.3477165	67999.512705291
68385.299948625	5.35	1	68388.299948625	5.348238374994253		68402.149881291	68390.648187	68390.64994862501	68402.14994862501	68390.64826375	68402.148421416	11.5	1080.24			3	4	1	0	27	16	1000	1050	67998.637443208	67999.017631708	67999.182567583	67999.3477165	67999.512705291
68385.299948625	5.35	0	68389.049948625	5.348238374994253		68402.149881291	68390.648187	68390.64994862501	68402.14994862501	68390.64826375	68402.148421416	11.5	1021.3			3	4	1	0	27	16	1000	1050	67998.637443208	67999.017631708	67999.182567583	67999.3477165	67999.512705291
68385.299948625	5.35	0	68389.799948625	5.348238374994253		68402.149881291	68390.648187	68390.64994862501	68402.14994862501	68390.64826375	68402.148421416	11.5	993.37			3	4	1	0	27	16	1000	1050	67998.637443208	67999.017631708	67999.182567583	67999.3477165	67999.512705291
68385.299948625	5.35	0	68390.549948625	5.348238374994253		68402.149881291	68390.648187	68390.64994862501	68402.14994862501	68390.64826375	68402.148421416	11.5	968.35			3	4	1	0	27	16	1000	1050	67998.637443208	67999.017631708	67999.182567583	67999.3477165	67999.512705291
68402.156756291	5.35	0	68402.156756291	5.348895709001226		68415.006706625	68407.505652	68407.50675629101	68415.00675629101	68407.505740541	68415.006166708	7.5	942.1			3	6	1	0	28	16	1000	1050	67998.637443208	67999.017631708	67999.182567583	67999.3477165	67999.512705291
68402.156756291	5.35	0	68402.906756291	5.348895709001226		68415.006706625	68407.505652	68407.50675629101	68415.00675629101	68407.505740541	68415.006166708	7.5	938.23			3	6	1	0	28	16	1000	1050	67998.637443208	67999.017631708	67999.182567583	67999.3477165	67999.512705291
68402.156756291	5.35	0	68403.656756291	5.348895709001226		68415.006706625	68407.505652	68407.50675629101	68415.00675629101	68407.505740541	68415.006166708	7.5	973.63			3	6	1	0	28	16	1000	1050	67998.637443208	67999.017631708	67999.182567583	67999.3477165	67999.512705291
68402.156756291	5.35	0	68404.406756291	5.348895709001226		68415.006706625	68407.505652	68407.50675629101	68415.00675629101	68407.505740541	68415.006166708	7.5	977.11			3	6	1	0	28	16	1000	1050	67998.637443208	67999.017631708	67999.182567583	67999.3477165	67999.512705291
68402.156756291	5.35	0	68405.156756291	5.348895709001226		68415.006706625	68407.505652	68407.50675629101	68415.00675629101	68407.505740541	68415.006166708	7.5	977.03			3	6	1	0	28	16	1000	1050	67998.637443208	67999.017631708	67999.182567583	67999.3477165	67999.512705291
68402.156756291	5.35	0	68405.906756291	5.348895709001226		68415.006706625	68407.505652	68407.50675629101	68415.00675629101	68407.505740541	68415.006166708	7.5	973.06			3	6	1	0	28	16	1000	1050	67998.637443208	67999.017631708	67999.182567583	67999.3477165	67999.512705291
68402.156756291	5.35	1	68406.656756291	5.348895709001226		68415.006706625	68407.505652	68407.50675629101	68415.00675629101	68407.505740541	68415.006166708	7.5	1045.17			3	6	1	0	28	16	1000	1050	67998.637443208	67999.017631708	67999.182567583	67999.3477165	67999.512705291
68402.156756291	5.35	0	68407.406756291	5.348895709001226		68415.006706625	68407.505652	68407.50675629101	68415.00675629101	68407.505740541	68415.006166708	7.5	971.9			3	6	1	0	28	16	1000	1050	67998.637443208	67999.017631708	67999.182567583	67999.3477165	67999.512705291
68415.013581583	5.35	0	68415.013581583	5.348099291994004		68428.863526916	68420.361680875	68420.363581583	68428.863581583	68420.361758791	68428.862317458	8.5	961.82			3	4	1	0	29	16	1000	1050	67998.637443208	67999.017631708	67999.182567583	67999.3477165	67999.512705291
68415.013581583	5.35	0	68415.763581583	5.348099291994004		68428.863526916	68420.361680875	68420.363581583	68428.863581583	68420.361758791	68428.862317458	8.5	985.44			3	4	1	0	29	16	1000	1050	67998.637443208	67999.017631708	67999.182567583	67999.3477165	67999.512705291
68415.013581583	5.35	0	68416.513581583	5.348099291994004		68428.863526916	68420.361680875	68420.363581583	68428.863581583	68420.361758791	68428.862317458	8.5	997.11			3	4	1	0	29	16	1000	1050	67998.637443208	67999.017631708	67999.182567583	67999.3477165	67999.512705291
68415.013581583	5.35	0	68417.263581583	5.348099291994004		68428.863526916	68420.361680875	68420.363581583	68428.863581583	68420.361758791	68428.862317458	8.5	974.32			3	4	1	0	29	16	1000	1050	67998.637443208	67999.017631708	67999.182567583	67999.3477165	67999.512705291
68415.013581583	5.35	1	68418.013581583	5.348099291994004		68428.863526916	68420.361680875	68420.363581583	68428.863581583	68420.361758791	68428.862317458	8.5	1040.33			3	4	1	0	29	16	1000	1050	67998.637443208	67999.017631708	67999.182567583	67999.3477165	67999.512705291
68415.013581583	5.35	0	68418.763581583	5.348099291994004		68428.863526916	68420.361680875	68420.363581583	68428.863581583	68420.361758791	68428.862317458	8.5	987.25			3	4	1	0	29	16	1000	1050	67998.637443208	67999.017631708	67999.182567583	67999.3477165	67999.512705291
68415.013581583	5.35	0	68419.513581583	5.348099291994004		68428.863526916	68420.361680875	68420.363581583	68428.863581583	68420.361758791	68428.862317458	8.5	995.4			3	4	1	0	29	16	1000	1050	67998.637443208	67999.017631708	67999.182567583	67999.3477165	67999.512705291
68415.013581583	5.35	0	68420.263581583	5.348099291994004		68428.863526916	68420.361680875	68420.363581583	68428.863581583	68420.361758791	68428.862317458	8.5	1012.15			3	4	1	0	29	16	1000	1050	67998.637443208	67999.017631708	67999.182567583	67999.3477165	67999.512705291
68428.869776916	5.35	0	68428.869776916	5.348234958990361		68442.71972320799	68434.218011875	68434.21977691601	68442.71977691601	68434.218077791	68442.718969125	8.5	1018.04			3	5	1	0	30	16	1000	1050	67998.637443208	67999.017631708	67999.182567583	67999.3477165	67999.512705291
68428.869776916	5.35	0	68429.619776916	5.348234958990361		68442.71972320799	68434.218011875	68434.21977691601	68442.71977691601	68434.218077791	68442.718969125	8.5	1017.26			3	5	1	0	30	16	1000	1050	67998.637443208	67999.017631708	67999.182567583	67999.3477165	67999.512705291
68428.869776916	5.35	0	68430.369776916	5.348234958990361		68442.71972320799	68434.218011875	68434.21977691601	68442.71977691601	68434.218077791	68442.718969125	8.5	1011.92			3	5	1	0	30	16	1000	1050	67998.637443208	67999.017631708	67999.182567583	67999.3477165	67999.512705291
68428.869776916	5.35	0	68431.119776916	5.348234958990361		68442.71972320799	68434.218011875	68434.21977691601	68442.71977691601	68434.218077791	68442.718969125	8.5	1009.52			3	5	1	0	30	16	1000	1050	67998.637443208	67999.017631708	67999.182567583	67999.3477165	67999.512705291
68428.869776916	5.35	0	68431.869776916	5.348234958990361		68442.71972320799	68434.218011875	68434.21977691601	68442.71977691601	68434.218077791	68442.718969125	8.5	994.02			3	5	1	0	30	16	1000	1050	67998.637443208	67999.017631708	67999.182567583	67999.3477165	67999.512705291
68428.869776916	5.35	1	68432.619776916	5.348234958990361		68442.71972320799	68434.218011875	68434.21977691601	68442.71977691601	68434.218077791	68442.718969125	8.5	1050.75			3	5	1	0	30	16	1000	1050	67998.637443208	67999.017631708	67999.182567583	67999.3477165	67999.512705291
68428.869776916	5.35	0	68433.369776916	5.348234958990361		68442.71972320799	68434.218011875	68434.21977691601	68442.71977691601	68434.218077791	68442.718969125	8.5	950.67			3	5	1	0	30	16	1000	1050	67998.637443208	67999.017631708	67999.182567583	67999.3477165	67999.512705291
68428.869776916	5.35	0	68434.119776916	5.348234958990361		68442.71972320799	68434.218011875	68434.21977691601	68442.71977691601	68434.218077791	68442.718969125	8.5	988.69			3	5	1	0	30	16	1000	1050	67998.637443208	67999.017631708	67999.182567583	67999.3477165	67999.512705291
68442.727223166	5.35	0	68442.727223166	5.348519999999553		68455.577172916	68448.075743166	68448.07722316601	68455.57722316601	68448.075823125	68455.576848416	7.5	943.5			3	4	1	0	31	16	1000	1050	67998.637443208	67999.017631708	67999.182567583	67999.3477165	67999.512705291
68442.727223166	5.35	0	68443.477223166	5.348519999999553		68455.577172916	68448.075743166	68448.07722316601	68455.57722316601	68448.075823125	68455.576848416	7.5	936.95			3	4	1	0	31	16	1000	1050	67998.637443208	67999.017631708	67999.182567583	67999.3477165	67999.512705291
68442.727223166	5.35	0	68444.227223166	5.348519999999553		68455.577172916	68448.075743166	68448.07722316601	68455.57722316601	68448.075823125	68455.576848416	7.5	946.82			3	4	1	0	31	16	1000	1050	67998.637443208	67999.017631708	67999.182567583	67999.3477165	67999.512705291
68442.727223166	5.35	0	68444.977223166	5.348519999999553		68455.577172916	68448.075743166	68448.07722316601	68455.57722316601	68448.075823125	68455.576848416	7.5	954.92			3	4	1	0	31	16	1000	1050	67998.637443208	67999.017631708	67999.182567583	67999.3477165	67999.512705291
68442.727223166	5.35	1	68445.727223166	5.348519999999553		68455.577172916	68448.075743166	68448.07722316601	68455.57722316601	68448.075823125	68455.576848416	7.5	1060.84			3	4	1	0	31	16	1000	1050	67998.637443208	67999.017631708	67999.182567583	67999.3477165	67999.512705291
68442.727223166	5.35	0	68446.477223166	5.348519999999553		68455.577172916	68448.075743166	68448.07722316601	68455.57722316601	68448.075823125	68455.576848416	7.5	969.02			3	4	1	0	31	16	1000	1050	67998.637443208	67999.017631708	67999.182567583	67999.3477165	67999.512705291
68442.727223166	5.35	0	68447.227223166	5.348519999999553		68455.577172916	68448.075743166	68448.07722316601	68455.57722316601	68448.075823125	68455.576848416	7.5	996.84			3	4	1	0	31	16	1000	1050	67998.637443208	67999.017631708	67999.182567583	67999.3477165	67999.512705291
68442.727223166	5.35	0	68447.977223166	5.348519999999553		68455.577172916	68448.075743166	68448.07722316601	68455.57722316601	68448.075823125	68455.576848416	7.5	997.31			3	4	1	0	31	16	1000	1050	67998.637443208	67999.017631708	67999.182567583	67999.3477165	67999.512705291
68455.58623537501	5.35	0	68455.58623537501	5.349210165994009		68469.436182041	68460.935445541	68460.93623537502	68469.43623537502	68460.935636583	68469.434588833	8.5	963.2			3	5	1	0	32	16	1000	1050	67998.637443208	67999.017631708	67999.182567583	67999.3477165	67999.512705291
68455.58623537501	5.35	0	68456.33623537501	5.349210165994009		68469.436182041	68460.935445541	68460.93623537502	68469.43623537502	68460.935636583	68469.434588833	8.5	989.49			3	5	1	0	32	16	1000	1050	67998.637443208	67999.017631708	67999.182567583	67999.3477165	67999.512705291
68455.58623537501	5.35	0	68457.08623537501	5.349210165994009		68469.436182041	68460.935445541	68460.93623537502	68469.43623537502	68460.935636583	68469.434588833	8.5	967.07			3	5	1	0	32	16	1000	1050	67998.637443208	67999.017631708	67999.182567583	67999.3477165	67999.512705291
68455.58623537501	5.35	0	68457.83623537501	5.349210165994009		68469.436182041	68460.935445541	68460.93623537502	68469.43623537502	68460.935636583	68469.434588833	8.5	986.47			3	5	1	0	32	16	1000	1050	67998.637443208	67999.017631708	67999.182567583	67999.3477165	67999.512705291
68455.58623537501	5.35	0	68458.58623537501	5.349210165994009		68469.436182041	68460.935445541	68460.93623537502	68469.43623537502	68460.935636583	68469.434588833	8.5	990.23			3	5	1	0	32	16	1000	1050	67998.637443208	67999.017631708	67999.182567583	67999.3477165	67999.512705291
68455.58623537501	5.35	1	68459.33623537501	5.349210165994009		68469.436182041	68460.935445541	68460.93623537502	68469.43623537502	68460.935636583	68469.434588833	8.5	1042.33			3	5	1	0	32	16	1000	1050	67998.637443208	67999.017631708	67999.182567583	67999.3477165	67999.512705291
68455.58623537501	5.35	0	68460.08623537501	5.349210165994009		68469.436182041	68460.935445541	68460.93623537502	68469.43623537502	68460.935636583	68469.434588833	8.5	950.66			3	5	1	0	32	16	1000	1050	67998.637443208	67999.017631708	67999.182567583	67999.3477165	67999.512705291
68455.58623537501	5.35	0	68460.83623537501	5.349210165994009		68469.436182041	68460.935445541	68460.93623537502	68469.43623537502	68460.935636583	68469.434588833	8.5	969.98			3	5	1	0	32	16	1000	1050	67998.637443208	67999.017631708	67999.182567583	67999.3477165	67999.512705291
68469.44430700001	5.35	0	68469.44430700001	5.347371665993705		68481.794259666	68474.791678666	68474.79430700002	68481.79430700002	68474.791770958	68481.793601625	7.0	979.83			3	4	1	0	33	16	1000	1050	67998.637443208	67999.017631708	67999.182567583	67999.3477165	67999.512705291
68469.44430700001	5.35	0	68470.19430700001	5.347371665993705		68481.794259666	68474.791678666	68474.79430700002	68481.79430700002	68474.791770958	68481.793601625	7.0	988.63			3	4	1	0	33	16	1000	1050	67998.637443208	67999.017631708	67999.182567583	67999.3477165	67999.512705291
68469.44430700001	5.35	0	68470.94430700001	5.347371665993705		68481.794259666	68474.791678666	68474.79430700002	68481.79430700002	68474.791770958	68481.793601625	7.0	1001.86			3	4	1	0	33	16	1000	1050	67998.637443208	67999.017631708	67999.182567583	67999.3477165	67999.512705291
68469.44430700001	5.35	0	68471.69430700001	5.347371665993705		68481.794259666	68474.791678666	68474.79430700002	68481.79430700002	68474.791770958	68481.793601625	7.0	976.06			3	4	1	0	33	16	1000	1050	67998.637443208	67999.017631708	67999.182567583	67999.3477165	67999.512705291
68469.44430700001	5.35	1	68472.44430700001	5.347371665993705		68481.794259666	68474.791678666	68474.79430700002	68481.79430700002	68474.791770958	68481.793601625	7.0	1046.88			3	4	1	0	33	16	1000	1050	67998.637443208	67999.017631708	67999.182567583	67999.3477165	67999.512705291
68469.44430700001	5.35	0	68473.19430700001	5.347371665993705		68481.794259666	68474.791678666	68474.79430700002	68481.79430700002	68474.791770958	68481.793601625	7.0	982.57			3	4	1	0	33	16	1000	1050	67998.637443208	67999.017631708	67999.182567583	67999.3477165	67999.512705291
68469.44430700001	5.35	0	68473.94430700001	5.347371665993705		68481.794259666	68474.791678666	68474.79430700002	68481.79430700002	68474.791770958	68481.793601625	7.0	955.19			3	4	1	0	33	16	1000	1050	67998.637443208	67999.017631708	67999.182567583	67999.3477165	67999.512705291
68469.44430700001	5.35	0	68474.69430700001	5.347371665993705		68481.794259666	68474.791678666	68474.79430700002	68481.79430700002	68474.791770958	68481.793601625	7.0	954.71			3	4	1	0	33	16	1000	1050	67998.637443208	67999.017631708	67999.182567583	67999.3477165	67999.512705291
68481.80332212501	5.35	0	68481.80332212501	5.346734957987792		68495.153270708	68487.150057083	68487.15332212501	68495.15332212501	68487.15013525	68495.150895333	8.0	970.33			3	2	0	0	34	16	1000	1050	67998.637443208	67999.017631708	67999.182567583	67999.3477165	67999.512705291
68481.80332212501	5.35	0	68482.55332212501	5.346734957987792		68495.153270708	68487.150057083	68487.15332212501	68495.15332212501	68487.15013525	68495.150895333	8.0	973.18			3	2	0	0	34	16	1000	1050	67998.637443208	67999.017631708	67999.182567583	67999.3477165	67999.512705291
68481.80332212501	5.35	1	68483.30332212501	5.346734957987792		68495.153270708	68487.150057083	68487.15332212501	68495.15332212501	68487.15013525	68495.150895333	8.0	1020.76			3	2	0	0	34	16	1000	1050	67998.637443208	67999.017631708	67999.182567583	67999.3477165	67999.512705291
68481.80332212501	5.35	0	68484.05332212501	5.346734957987792		68495.153270708	68487.150057083	68487.15332212501	68495.15332212501	68487.15013525	68495.150895333	8.0	1003.72			3	2	0	0	34	16	1000	1050	67998.637443208	67999.017631708	67999.182567583	67999.3477165	67999.512705291
68481.80332212501	5.35	0	68484.80332212501	5.346734957987792		68495.153270708	68487.150057083	68487.15332212501	68495.15332212501	68487.15013525	68495.150895333	8.0	1024.03			3	2	0	0	34	16	1000	1050	67998.637443208	67999.017631708	67999.182567583	67999.3477165	67999.512705291
68481.80332212501	5.35	0	68485.55332212501	5.346734957987792		68495.153270708	68487.150057083	68487.15332212501	68495.15332212501	68487.15013525	68495.150895333	8.0	997.51			3	2	0	0	34	16	1000	1050	67998.637443208	67999.017631708	67999.182567583	67999.3477165	67999.512705291
68481.80332212501	5.35	0	68486.30332212501	5.346734957987792		68495.153270708	68487.150057083	68487.15332212501	68495.15332212501	68487.15013525	68495.150895333	8.0	1000.13			3	2	0	0	34	16	1000	1050	67998.637443208	67999.017631708	67999.182567583	67999.3477165	67999.512705291
68481.80332212501	5.35	0	68487.05332212501	5.346734957987792		68495.153270708	68487.150057083	68487.15332212501	68495.15332212501	68487.15013525	68495.150895333	8.0	1003.27			3	2	0	0	34	16	1000	1050	67998.637443208	67999.017631708	67999.182567583	67999.3477165	67999.512705291
68495.160145666	5.35	0	68495.160145666	5.347420417005196		68508.010095458	68500.507566083	68500.510145666	68508.010145666	68500.507656208	68508.008603083	7.5	993.35			3	6	1	0	35	16	1000	1050	67998.637443208	67999.017631708	67999.182567583	67999.3477165	67999.512705291
68495.160145666	5.35	0	68495.910145666	5.347420417005196		68508.010095458	68500.507566083	68500.510145666	68508.010145666	68500.507656208	68508.008603083	7.5	1026.59			3	6	1	0	35	16	1000	1050	67998.637443208	67999.017631708	67999.182567583	67999.3477165	67999.512705291
68495.160145666	5.35	0	68496.660145666	5.347420417005196		68508.010095458	68500.507566083	68500.510145666	68508.010145666	68500.507656208	68508.008603083	7.5	994.41			3	6	1	0	35	16	1000	1050	67998.637443208	67999.017631708	67999.182567583	67999.3477165	67999.512705291
68495.160145666	5.35	0	68497.410145666	5.347420417005196		68508.010095458	68500.507566083	68500.510145666	68508.010145666	68500.507656208	68508.008603083	7.5	1002.46			3	6	1	0	35	16	1000	1050	67998.637443208	67999.017631708	67999.182567583	67999.3477165	67999.512705291
68495.160145666	5.35	0	68498.160145666	5.347420417005196		68508.010095458	68500.507566083	68500.510145666	68508.010145666	68500.507656208	68508.008603083	7.5	1006.55			3	6	1	0	35	16	1000	1050	67998.637443208	67999.017631708	67999.182567583	67999.3477165	67999.512705291
68495.160145666	5.35	0	68498.910145666	5.347420417005196		68508.010095458	68500.507566083	68500.510145666	68508.010145666	68500.507656208	68508.008603083	7.5	1008.78			3	6	1	0	35	16	1000	1050	67998.637443208	67999.017631708	67999.182567583	67999.3477165	67999.512705291
68495.160145666	5.35	1	68499.660145666	5.347420417005196		68508.010095458	68500.507566083	68500.510145666	68508.010145666	68500.507656208	68508.008603083	7.5	1030.01			3	6	1	0	35	16	1000	1050	67998.637443208	67999.017631708	67999.182567583	67999.3477165	67999.512705291
68495.160145666	5.35	0	68500.410145666	5.347420417005196		68508.010095458	68500.507566083	68500.510145666	68508.010145666	68500.507656208	68508.008603083	7.5	1006.71			3	6	1	0	35	16	1000	1050	67998.637443208	67999.017631708	67999.182567583	67999.3477165	67999.512705291
68508.016345416	5.35	0	68508.016345416	5.348827333989902		68524.366281833	68513.36517275	68513.36634541601	68524.36634541601	68513.365231166	68524.36545225	11.0	1011.98			3	4	1	0	36	16	1000	1050	67998.637443208	67999.017631708	67999.182567583	67999.3477165	67999.512705291
68508.016345416	5.35	0	68508.766345416	5.348827333989902		68524.366281833	68513.36517275	68513.36634541601	68524.36634541601	68513.365231166	68524.36545225	11.0	979.86			3	4	1	0	36	16	1000	1050	67998.637443208	67999.017631708	67999.182567583	67999.3477165	67999.512705291
68508.016345416	5.35	0	68509.516345416	5.348827333989902		68524.366281833	68513.36517275	68513.36634541601	68524.36634541601	68513.365231166	68524.36545225	11.0	998.83			3	4	1	0	36	16	1000	1050	67998.637443208	67999.017631708	67999.182567583	67999.3477165	67999.512705291
68508.016345416	5.35	0	68510.266345416	5.348827333989902		68524.366281833	68513.36517275	68513.36634541601	68524.36634541601	68513.365231166	68524.36545225	11.0	995.16			3	4	1	0	36	16	1000	1050	67998.637443208	67999.017631708	67999.182567583	67999.3477165	67999.512705291
68508.016345416	5.35	1	68511.016345416	5.348827333989902		68524.366281833	68513.36517275	68513.36634541601	68524.36634541601	68513.365231166	68524.36545225	11.0	1068.35			3	4	1	0	36	16	1000	1050	67998.637443208	67999.017631708	67999.182567583	67999.3477165	67999.512705291
68508.016345416	5.35	0	68511.766345416	5.348827333989902		68524.366281833	68513.36517275	68513.36634541601	68524.36634541601	68513.365231166	68524.36545225	11.0	1007.91			3	4	1	0	36	16	1000	1050	67998.637443208	67999.017631708	67999.182567583	67999.3477165	67999.512705291
68508.016345416	5.35	0	68512.516345416	5.348827333989902		68524.366281833	68513.36517275	68513.36634541601	68524.36634541601	68513.365231166	68524.36545225	11.0	1004.95			3	4	1	0	36	16	1000	1050	67998.637443208	67999.017631708	67999.182567583	67999.3477165	67999.512705291
68508.016345416	5.35	0	68513.266345416	5.348827333989902		68524.366281833	68513.36517275	68513.36634541601	68524.36634541601	68513.365231166	68524.36545225	11.0	979.02			3	4	1	0	36	16	1000	1050	67998.637443208	67999.017631708	67999.182567583	67999.3477165	67999.512705291
68524.37346929101	5.35	0	68524.37346929101	5.347853458995814		68539.2234115	68529.72132275	68529.72346929101	68539.22346929101	68529.721413666	68539.221538291	9.5	1001.09			4	0	2	0	37	16	1000	1050	67998.637443208	67999.017631708	67999.182567583	67999.3477165	67999.512705291
68524.37346929101	5.35	0	68525.12346929101	5.347853458995814		68539.2234115	68529.72132275	68529.72346929101	68539.22346929101	68529.721413666	68539.221538291	9.5	979.56			4	0	2	0	37	16	1000	1050	67998.637443208	67999.017631708	67999.182567583	67999.3477165	67999.512705291
68524.37346929101	5.35	0	68525.87346929101	5.347853458995814		68539.2234115	68529.72132275	68529.72346929101	68539.22346929101	68529.721413666	68539.221538291	9.5	989.11			4	0	2	0	37	16	1000	1050	67998.637443208	67999.017631708	67999.182567583	67999.3477165	67999.512705291
68524.37346929101	5.35	0	68526.62346929101	5.347853458995814		68539.2234115	68529.72132275	68529.72346929101	68539.22346929101	68529.721413666	68539.221538291	9.5	997.2			4	0	2	0	37	16	1000	1050	67998.637443208	67999.017631708	67999.182567583	67999.3477165	67999.512705291
68524.37346929101	5.35	0	68527.37346929101	5.347853458995814		68539.2234115	68529.72132275	68529.72346929101	68539.22346929101	68529.721413666	68539.221538291	9.5	1023.02			4	0	2	0	37	16	1000	1050	67998.637443208	67999.017631708	67999.182567583	67999.3477165	67999.512705291
68524.37346929101	5.35	0	68528.12346929101	5.347853458995814		68539.2234115	68529.72132275	68529.72346929101	68539.22346929101	68529.721413666	68539.221538291	9.5	1006.62			4	0	2	0	37	16	1000	1050	67998.637443208	67999.017631708	67999.182567583	67999.3477165	67999.512705291
68524.37346929101	5.35	0	68528.87346929101	5.347853458995814		68539.2234115	68529.72132275	68529.72346929101	68539.22346929101	68529.721413666	68539.221538291	9.5	989.09			4	0	2	0	37	16	1000	1050	67998.637443208	67999.017631708	67999.182567583	67999.3477165	67999.512705291
68524.37346929101	5.35	0	68529.62346929101	5.347853458995814		68539.2234115	68529.72132275	68529.72346929101	68539.22346929101	68529.721413666	68539.221538291	9.5	986.57			4	0	2	0	37	16	1000	1050	67998.637443208	67999.017631708	67999.182567583	67999.3477165	67999.512705291
68539.23028650001	5.35	0	68539.23028650001	5.347820165989106		68553.080232625	68544.578106666	68544.58028650002	68553.08028650002	68544.57819525	68553.078123583	8.5	974.72			3	6	1	0	38	16	1000	1050	67998.637443208	67999.017631708	67999.182567583	67999.3477165	67999.512705291
68539.23028650001	5.35	0	68539.98028650001	5.347820165989106		68553.080232625	68544.578106666	68544.58028650002	68553.08028650002	68544.57819525	68553.078123583	8.5	951.99			3	6	1	0	38	16	1000	1050	67998.637443208	67999.017631708	67999.182567583	67999.3477165	67999.512705291
68539.23028650001	5.35	0	68540.73028650001	5.347820165989106		68553.080232625	68544.578106666	68544.58028650002	68553.08028650002	68544.57819525	68553.078123583	8.5	952.9			3	6	1	0	38	16	1000	1050	67998.637443208	67999.017631708	67999.182567583	67999.3477165	67999.512705291
68539.23028650001	5.35	0	68541.48028650001	5.347820165989106		68553.080232625	68544.578106666	68544.58028650002	68553.08028650002	68544.57819525	68553.078123583	8.5	971.57			3	6	1	0	38	16	1000	1050	67998.637443208	67999.017631708	67999.182567583	67999.3477165	67999.512705291
68539.23028650001	5.35	0	68542.23028650001	5.347820165989106		68553.080232625	68544.578106666	68544.58028650002	68553.08028650002	68544.57819525	68553.078123583	8.5	951.69			3	6	1	0	38	16	1000	1050	67998.637443208	67999.017631708	67999.182567583	67999.3477165	67999.512705291
68539.23028650001	5.35	0	68542.98028650001	5.347820165989106		68553.080232625	68544.578106666	68544.58028650002	68553.08028650002	68544.57819525	68553.078123583	8.5	967.45			3	6	1	0	38	16	1000	1050	67998.637443208	67999.017631708	67999.182567583	67999.3477165	67999.512705291
68539.23028650001	5.35	1	68543.73028650001	5.347820165989106		68553.080232625	68544.578106666	68544.58028650002	68553.08028650002	68544.57819525	68553.078123583	8.5	1048.49			3	6	1	0	38	16	1000	1050	67998.637443208	67999.017631708	67999.182567583	67999.3477165	67999.512705291
68539.23028650001	5.35	0	68544.48028650001	5.347820165989106		68553.080232625	68544.578106666	68544.58028650002	68553.08028650002	68544.57819525	68553.078123583	8.5	986.65			3	6	1	0	38	16	1000	1050	67998.637443208	67999.017631708	67999.182567583	67999.3477165	67999.512705291
68553.086482625	5.35	0	68553.086482625	5.349178791002487		68568.436423833	68558.435661416	68558.43648262501	68568.43648262501	68558.435746375	68568.432895166	10.0	983.57			4	0	2	0	39	16	1000	1050	67998.637443208	67999.017631708	67999.182567583	67999.3477165	67999.512705291
68553.086482625	5.35	0	68553.836482625	5.349178791002487		68568.436423833	68558.435661416	68558.43648262501	68568.43648262501	68558.435746375	68568.432895166	10.0	979.69			4	0	2	0	39	16	1000	1050	67998.637443208	67999.017631708	67999.182567583	67999.3477165	67999.512705291
68553.086482625	5.35	0	68554.586482625	5.349178791002487		68568.436423833	68558.435661416	68558.43648262501	68568.43648262501	68558.435746375	68568.432895166	10.0	982.48			4	0	2	0	39	16	1000	1050	67998.637443208	67999.017631708	67999.182567583	67999.3477165	67999.512705291
68553.086482625	5.35	0	68555.336482625	5.349178791002487		68568.436423833	68558.435661416	68558.43648262501	68568.43648262501	68558.435746375	68568.432895166	10.0	999.57			4	0	2	0	39	16	1000	1050	67998.637443208	67999.017631708	67999.182567583	67999.3477165	67999.512705291
68553.086482625	5.35	0	68556.086482625	5.349178791002487		68568.436423833	68558.435661416	68558.43648262501	68568.43648262501	68558.435746375	68568.432895166	10.0	990.08			4	0	2	0	39	16	1000	1050	67998.637443208	67999.017631708	67999.182567583	67999.3477165	67999.512705291
68553.086482625	5.35	0	68556.836482625	5.349178791002487		68568.436423833	68558.435661416	68558.43648262501	68568.43648262501	68558.435746375	68568.432895166	10.0	981.34			4	0	2	0	39	16	1000	1050	67998.637443208	67999.017631708	67999.182567583	67999.3477165	67999.512705291
68553.086482625	5.35	0	68557.586482625	5.349178791002487		68568.436423833	68558.435661416	68558.43648262501	68568.43648262501	68558.435746375	68568.432895166	10.0	969.8			4	0	2	0	39	16	1000	1050	67998.637443208	67999.017631708	67999.182567583	67999.3477165	67999.512705291
68553.086482625	5.35	0	68558.336482625	5.349178791002487		68568.436423833	68558.435661416	68558.43648262501	68568.43648262501	68558.435746375	68568.432895166	10.0	978.11			4	0	2	0	39	16	1000	1050	67998.637443208	67999.017631708	67999.182567583	67999.3477165	67999.512705291
68568.44267383301	5.35	0	68568.44267383301	5.348765916991397		68582.292620291	68573.79143975	68573.79267383301	68582.29267383301	68573.791513458	68582.2909125	8.5	983.71			3	3	0	0	40	16	1000	1050	67998.637443208	67999.017631708	67999.182567583	67999.3477165	67999.512705291
68568.44267383301	5.35	0	68569.19267383301	5.348765916991397		68582.292620291	68573.79143975	68573.79267383301	68582.29267383301	68573.791513458	68582.2909125	8.5	967.87			3	3	0	0	40	16	1000	1050	67998.637443208	67999.017631708	67999.182567583	67999.3477165	67999.512705291
68568.44267383301	5.35	0	68569.94267383301	5.348765916991397		68582.292620291	68573.79143975	68573.79267383301	68582.29267383301	68573.791513458	68582.2909125	8.5	985.89			3	3	0	0	40	16	1000	1050	67998.637443208	67999.017631708	67999.182567583	67999.3477165	67999.512705291
68568.44267383301	5.35	1	68570.69267383301	5.348765916991397		68582.292620291	68573.79143975	68573.79267383301	68582.29267383301	68573.791513458	68582.2909125	8.5	1039.64			3	3	0	0	40	16	1000	1050	67998.637443208	67999.017631708	67999.182567583	67999.3477165	67999.512705291
68568.44267383301	5.35	0	68571.44267383301	5.348765916991397		68582.292620291	68573.79143975	68573.79267383301	68582.29267383301	68573.791513458	68582.2909125	8.5	952.24			3	3	0	0	40	16	1000	1050	67998.637443208	67999.017631708	67999.182567583	67999.3477165	67999.512705291
68568.44267383301	5.35	0	68572.19267383301	5.348765916991397		68582.292620291	68573.79143975	68573.79267383301	68582.29267383301	68573.791513458	68582.2909125	8.5	947.92			3	3	0	0	40	16	1000	1050	67998.637443208	67999.017631708	67999.182567583	67999.3477165	67999.512705291
68568.44267383301	5.35	0	68572.94267383301	5.348765916991397		68582.292620291	68573.79143975	68573.79267383301	68582.29267383301	68573.791513458	68582.2909125	8.5	964.81			3	3	0	0	40	16	1000	1050	67998.637443208	67999.017631708	67999.182567583	67999.3477165	67999.512705291
68568.44267383301	5.35	0	68573.69267383301	5.348765916991397		68582.292620291	68573.79143975	68573.79267383301	68582.29267383301	68573.791513458	68582.2909125	8.5	935.15			3	3	0	0	40	16	1000	1050	67998.637443208	67999.017631708	67999.182567583	67999.3477165	67999.512705291
68582.29887029101	5.35	0	68582.29887029101	5.349411083996529		68595.648818958	68587.648281375	68587.64887029101	68595.64887029101	68587.648374333	68595.646375833	8.0	949.27			3	2	0	0	41	16	1000	1050	67998.637443208	67999.017631708	67999.182567583	67999.3477165	67999.512705291
68582.29887029101	5.35	0	68583.04887029101	5.349411083996529		68595.648818958	68587.648281375	68587.64887029101	68595.64887029101	68587.648374333	68595.646375833	8.0	953.85			3	2	0	0	41	16	1000	1050	67998.637443208	67999.017631708	67999.182567583	67999.3477165	67999.512705291
68582.29887029101	5.35	1	68583.79887029101	5.349411083996529		68595.648818958	68587.648281375	68587.64887029101	68595.64887029101	68587.648374333	68595.646375833	8.0	1033.83			3	2	0	0	41	16	1000	1050	67998.637443208	67999.017631708	67999.182567583	67999.3477165	67999.512705291
68582.29887029101	5.35	0	68584.54887029101	5.349411083996529		68595.648818958	68587.648281375	68587.64887029101	68595.64887029101	68587.648374333	68595.646375833	8.0	992.56			3	2	0	0	41	16	1000	1050	67998.637443208	67999.017631708	67999.182567583	67999.3477165	67999.512705291
68582.29887029101	5.35	0	68585.29887029101	5.349411083996529		68595.648818958	68587.648281375	68587.64887029101	68595.64887029101	68587.648374333	68595.646375833	8.0	991.15			3	2	0	0	41	16	1000	1050	67998.637443208	67999.017631708	67999.182567583	67999.3477165	67999.512705291
68582.29887029101	5.35	0	68586.04887029101	5.349411083996529		68595.648818958	68587.648281375	68587.64887029101	68595.64887029101	68587.648374333	68595.646375833	8.0	1000.52			3	2	0	0	41	16	1000	1050	67998.637443208	67999.017631708	67999.182567583	67999.3477165	67999.512705291
68582.29887029101	5.35	0	68586.79887029101	5.349411083996529		68595.648818958	68587.648281375	68587.64887029101	68595.64887029101	68587.648374333	68595.646375833	8.0	979.21			3	2	0	0	41	16	1000	1050	67998.637443208	67999.017631708	67999.182567583	67999.3477165	67999.512705291
68582.29887029101	5.35	0	68587.54887029101	5.349411083996529		68595.648818958	68587.648281375	68587.64887029101	68595.64887029101	68587.648374333	68595.646375833	8.0	1017.43			3	2	0	0	41	16	1000	1050	67998.637443208	67999.017631708	67999.182567583	67999.3477165	67999.512705291
68595.654443958	5.35	0	68595.654443958	5.34900554199703		68610.004390833	68601.0034495	68601.00444395801	68610.00444395801	68601.003573291	68610.001627708	9.0	1016.52			3	4	0	0	42	16	1000	1050	67998.637443208	67999.017631708	67999.182567583	67999.3477165	67999.512705291
68595.654443958	5.35	0	68596.404443958	5.34900554199703		68610.004390833	68601.0034495	68601.00444395801	68610.00444395801	68601.003573291	68610.001627708	9.0	1005.06			3	4	0	0	42	16	1000	1050	67998.637443208	67999.017631708	67999.182567583	67999.3477165	67999.512705291
68595.654443958	5.35	0	68597.154443958	5.34900554199703		68610.004390833	68601.0034495	68601.00444395801	68610.00444395801	68601.003573291	68610.001627708	9.0	1034.41			3	4	0	0	42	16	1000	1050	67998.637443208	67999.017631708	67999.182567583	67999.3477165	67999.512705291
68595.654443958	5.35	0	68597.904443958	5.34900554199703		68610.004390833	68601.0034495	68601.00444395801	68610.00444395801	68601.003573291	68610.001627708	9.0	1032.67			3	4	0	0	42	16	1000	1050	67998.637443208	67999.017631708	67999.182567583	67999.3477165	67999.512705291
68595.654443958	5.35	1	68598.654443958	5.34900554199703		68610.004390833	68601.0034495	68601.00444395801	68610.00444395801	68601.003573291	68610.001627708	9.0	1030.97			3	4	0	0	42	16	1000	1050	67998.637443208	67999.017631708	67999.182567583	67999.3477165	67999.512705291
68595.654443958	5.35	0	68599.404443958	5.34900554199703		68610.004390833	68601.0034495	68601.00444395801	68610.00444395801	68601.003573291	68610.001627708	9.0	1008.83			3	4	0	0	42	16	1000	1050	67998.637443208	67999.017631708	67999.182567583	67999.3477165	67999.512705291
68595.654443958	5.35	0	68600.154443958	5.34900554199703		68610.004390833	68601.0034495	68601.00444395801	68610.00444395801	68601.003573291	68610.001627708	9.0	1015.38			3	4	0	0	42	16	1000	1050	67998.637443208	67999.017631708	67999.182567583	67999.3477165	67999.512705291
68595.654443958	5.35	0	68600.904443958	5.34900554199703		68610.004390833	68601.0034495	68601.00444395801	68610.00444395801	68601.003573291	68610.001627708	9.0	1038.82			3	4	0	0	42	16	1000	1050	67998.637443208	67999.017631708	67999.182567583	67999.3477165	67999.512705291
68610.010640833	5.35	0	68610.010640833	5.348786957998527		68624.360587625	68615.359427791	68615.36064083301	68624.36064083301	68615.35952875	68624.360264708	9.0	1018.92			3	2	0	0	43	16	1000	1050	67998.637443208	67999.017631708	67999.182567583	67999.3477165	67999.512705291
68610.010640833	5.35	0	68610.760640833	5.348786957998527		68624.360587625	68615.359427791	68615.36064083301	68624.36064083301	68615.35952875	68624.360264708	9.0	1008.92			3	2	0	0	43	16	1000	1050	67998.637443208	67999.017631708	67999.182567583	67999.3477165	67999.512705291
68610.010640833	5.35	1	68611.510640833	5.348786957998527		68624.360587625	68615.359427791	68615.36064083301	68624.36064083301	68615.35952875	68624.360264708	9.0	1044.45			3	2	0	0	43	16	1000	1050	67998.637443208	67999.017631708	67999.182567583	67999.3477165	67999.512705291
68610.010640833	5.35	0	68612.260640833	5.348786957998527		68624.360587625	68615.359427791	68615.36064083301	68624.36064083301	68615.35952875	68624.360264708	9.0	1017.93			3	2	0	0	43	16	1000	1050	67998.637443208	67999.017631708	67999.182567583	67999.3477165	67999.512705291
68610.010640833	5.35	0	68613.010640833	5.348786957998527		68624.360587625	68615.359427791	68615.36064083301	68624.36064083301	68615.35952875	68624.360264708	9.0	1009.31			3	2	0	0	43	16	1000	1050	67998.637443208	67999.017631708	67999.182567583	67999.3477165	67999.512705291
68610.010640833	5.35	0	68613.760640833	5.348786957998527		68624.360587625	68615.359427791	68615.36064083301	68624.36064083301	68615.35952875	68624.360264708	9.0	982.54			3	2	0	0	43	16	1000	1050	67998.637443208	67999.017631708	67999.182567583	67999.3477165	67999.512705291
68610.010640833	5.35	0	68614.510640833	5.348786957998527		68624.360587625	68615.359427791	68615.36064083301	68624.36064083301	68615.35952875	68624.360264708	9.0	1000.04			3	2	0	0	43	16	1000	1050	67998.637443208	67999.017631708	67999.182567583	67999.3477165	67999.512705291
68610.010640833	5.35	0	68615.260640833	5.348786957998527		68624.360587625	68615.359427791	68615.36064083301	68624.36064083301	68615.35952875	68624.360264708	9.0	1012.87			3	2	0	0	43	16	1000	1050	67998.637443208	67999.017631708	67999.182567583	67999.3477165	67999.512705291
68624.367462625	5.35	0	68624.367462625	5.3477349580061855		68639.717405666	68629.715197583	68629.717462625	68639.717462625	68629.715271291	68639.717189833	10.0	995.83			3	2	0	0	44	16	1000	1050	67998.637443208	67999.017631708	67999.182567583	67999.3477165	67999.512705291
68624.367462625	5.35	0	68625.117462625	5.3477349580061855		68639.717405666	68629.715197583	68629.717462625	68639.717462625	68629.715271291	68639.717189833	10.0	972.9			3	2	0	0	44	16	1000	1050	67998.637443208	67999.017631708	67999.182567583	67999.3477165	67999.512705291
68624.367462625	5.35	1	68625.867462625	5.3477349580061855		68639.717405666	68629.715197583	68629.717462625	68639.717462625	68629.715271291	68639.717189833	10.0	1028.46			3	2	0	0	44	16	1000	1050	67998.637443208	67999.017631708	67999.182567583	67999.3477165	67999.512705291
68624.367462625	5.35	0	68626.617462625	5.3477349580061855		68639.717405666	68629.715197583	68629.717462625	68639.717462625	68629.715271291	68639.717189833	10.0	1003.98			3	2	0	0	44	16	1000	1050	67998.637443208	67999.017631708	67999.182567583	67999.3477165	67999.512705291
68624.367462625	5.35	0	68627.367462625	5.3477349580061855		68639.717405666	68629.715197583	68629.717462625	68639.717462625	68629.715271291	68639.717189833	10.0	1017.52			3	2	0	0	44	16	1000	1050	67998.637443208	67999.017631708	67999.182567583	67999.3477165	67999.512705291
68624.367462625	5.35	0	68628.117462625	5.3477349580061855		68639.717405666	68629.715197583	68629.717462625	68639.717462625	68629.715271291	68639.717189833	10.0	989.83			3	2	0	0	44	16	1000	1050	67998.637443208	67999.017631708	67999.182567583	67999.3477165	67999.512705291
68624.367462625	5.35	0	68628.867462625	5.3477349580061855		68639.717405666	68629.715197583	68629.717462625	68639.717462625	68629.715271291	68639.717189833	10.0	1015.87			3	2	0	0	44	16	1000	1050	67998.637443208	67999.017631708	67999.182567583	67999.3477165	67999.512705291
68624.367462625	5.35	0	68629.617462625	5.3477349580061855		68639.717405666	68629.715197583	68629.717462625	68639.717462625	68629.715271291	68639.717189833	10.0	996.81			3	2	0	0	44	16	1000	1050	67998.637443208	67999.017631708	67999.182567583	67999.3477165	67999.512705291
68639.725530625	5.35	0	68639.725530625	5.3494658330018865		68654.575475208	68645.074996458	68645.075530625	68654.575530625	68645.075081666	68654.573281708	9.5	1006.14			3	2	0	0	45	16	1000	1050	67998.637443208	67999.017631708	67999.182567583	67999.3477165	67999.512705291
68639.725530625	5.35	0	68640.475530625	5.3494658330018865		68654.575475208	68645.074996458	68645.075530625	68654.575530625	68645.075081666	68654.573281708	9.5	1018.27			3	2	0	0	45	16	1000	1050	67998.637443208	67999.017631708	67999.182567583	67999.3477165	67999.512705291
