onset	duration	trial_type	onset_tone	duration_imprecise	response_time_imprecise	offset_trial	offset_sound_imprecise	onset_iti	offset_iti	onset_iti_imprecise	offset_iti_imprecise	ITI	frequency	key_pressed	correct	dpos	rule	runs	trial_no	tau_std	lim_std	lim_dev	trigger_time_1	trigger_time_2	trigger_time_3	trigger_time_4	trigger_time_5
93479.36226133301	5.35	0	93479.36226133301	5.347555374988588		93487.714451583	93484.709816708	93484.71226133301	93487.71226133301	93484.709822333	93487.710461416	3.0	897.86		3	4	1	1	60	240	1000	1050	93478.71204625	93478.876229083	93479.02430325	93479.18941875	93479.354394291
93479.36226133301	5.35	0	93480.11226133301	5.347555374988588		93487.714451583	93484.709816708	93484.71226133301	93487.71226133301	93484.709822333	93487.710461416	3.0	894.1		3	4	1	1	60	240	1000	1050	93478.71204625	93478.876229083	93479.02430325	93479.18941875	93479.354394291
93479.36226133301	5.35	0	93480.86226133301	5.347555374988588		93487.714451583	93484.709816708	93484.71226133301	93487.71226133301	93484.709822333	93487.710461416	3.0	898.55		3	4	1	1	60	240	1000	1050	93478.71204625	93478.876229083	93479.02430325	93479.18941875	93479.354394291
93479.36226133301	5.35	0	93481.61226133301	5.347555374988588		93487.714451583	93484.709816708	93484.71226133301	93487.71226133301	93484.709822333	93487.710461416	3.0	883.07		3	4	1	1	60	240	1000	1050	93478.71204625	93478.876229083	93479.02430325	93479.18941875	93479.354394291
93479.36226133301	5.35	1	93482.36226133301	5.347555374988588		93487.714451583	93484.709816708	93484.71226133301	93487.71226133301	93484.709822333	93487.710461416	3.0	1012.97		3	4	1	1	60	240	1000	1050	93478.71204625	93478.876229083	93479.02430325	93479.18941875	93479.354394291
93479.36226133301	5.35	0	93483.11226133301	5.347555374988588		93487.714451583	93484.709816708	93484.71226133301	93487.71226133301	93484.709822333	93487.710461416	3.0	889.4		3	4	1	1	60	240	1000	1050	93478.71204625	93478.876229083	93479.02430325	93479.18941875	93479.354394291
93479.36226133301	5.35	0	93483.86226133301	5.347555374988588		93487.714451583	93484.709816708	93484.71226133301	93487.71226133301	93484.709822333	93487.710461416	3.0	880.04		3	4	1	1	60	240	1000	1050	93478.71204625	93478.876229083	93479.02430325	93479.18941875	93479.354394291
93479.36226133301	5.35	0	93484.61226133301	5.347555374988588		93487.714451583	93484.709816708	93484.71226133301	93487.71226133301	93484.709822333	93487.710461416	3.0	878.58		3	4	1	1	60	240	1000	1050	93478.71204625	93478.876229083	93479.02430325	93479.18941875	93479.354394291
93487.718826583	5.35	0	93487.718826583	5.3489774170011515		93496.068826208	93493.067804	93493.06882658301	93496.06882658301	93493.067813916	93496.068043458	3.0	875.97		3	6	1	1	61	240	1000	1050	93478.71204625	93478.876229083	93479.02430325	93479.18941875	93479.354394291
93487.718826583	5.35	0	93488.468826583	5.3489774170011515		93496.068826208	93493.067804	93493.06882658301	93496.06882658301	93493.067813916	93496.068043458	3.0	877.61		3	6	1	1	61	240	1000	1050	93478.71204625	93478.876229083	93479.02430325	93479.18941875	93479.354394291
93487.718826583	5.35	0	93489.218826583	5.3489774170011515		93496.068826208	93493.067804	93493.06882658301	93496.06882658301	93493.067813916	93496.068043458	3.0	871.17		3	6	1	1	61	240	1000	1050	93478.71204625	93478.876229083	93479.02430325	93479.18941875	93479.354394291
93487.718826583	5.35	0	93489.968826583	5.3489774170011515		93496.068826208	93493.067804	93493.06882658301	93496.06882658301	93493.067813916	93496.068043458	3.0	859.88		3	6	1	1	61	240	1000	1050	93478.71204625	93478.876229083	93479.02430325	93479.18941875	93479.354394291
93487.718826583	5.35	0	93490.718826583	5.3489774170011515		93496.068826208	93493.067804	93493.06882658301	93496.06882658301	93493.067813916	93496.068043458	3.0	858.09		3	6	1	1	61	240	1000	1050	93478.71204625	93478.876229083	93479.02430325	93479.18941875	93479.354394291
93487.718826583	5.35	0	93491.468826583	5.3489774170011515		93496.068826208	93493.067804	93493.06882658301	93496.06882658301	93493.067813916	93496.068043458	3.0	865.77		3	6	1	1	61	240	1000	1050	93478.71204625	93478.876229083	93479.02430325	93479.18941875	93479.354394291
93487.718826583	5.35	1	93492.218826583	5.3489774170011515		93496.068826208	93493.067804	93493.06882658301	93496.06882658301	93493.067813916	93496.068043458	3.0	1033.59		3	6	1	1	61	240	1000	1050	93478.71204625	93478.876229083	93479.02430325	93479.18941875	93479.354394291
93487.718826583	5.35	0	93492.968826583	5.3489774170011515		93496.068826208	93493.067804	93493.06882658301	93496.06882658301	93493.067813916	93496.068043458	3.0	859.69		3	6	1	1	61	240	1000	1050	93478.71204625	93478.876229083	93479.02430325	93479.18941875	93479.354394291
93496.07663870801	5.35	0	93496.07663870801	5.347905291986535		93505.426634875	93501.424544	93501.42663870801	93505.42663870801	93501.424550083	93505.425565875	4.0	865.49		3	5	1	1	62	240	1000	1050	93478.71204625	93478.876229083	93479.02430325	93479.18941875	93479.354394291
93496.07663870801	5.35	0	93496.82663870801	5.347905291986535		93505.426634875	93501.424544	93501.42663870801	93505.42663870801	93501.424550083	93505.425565875	4.0	852.93		3	5	1	1	62	240	1000	1050	93478.71204625	93478.876229083	93479.02430325	93479.18941875	93479.354394291
93496.07663870801	5.35	0	93497.57663870801	5.347905291986535		93505.426634875	93501.424544	93501.42663870801	93505.42663870801	93501.424550083	93505.425565875	4.0	838.53		3	5	1	1	62	240	1000	1050	93478.71204625	93478.876229083	93479.02430325	93479.18941875	93479.354394291
93496.07663870801	5.35	0	93498.32663870801	5.347905291986535		93505.426634875	93501.424544	93501.42663870801	93505.42663870801	93501.424550083	93505.425565875	4.0	840.11		3	5	1	1	62	240	1000	1050	93478.71204625	93478.876229083	93479.02430325	93479.18941875	93479.354394291
93496.07663870801	5.35	0	93499.07663870801	5.347905291986535		93505.426634875	93501.424544	93501.42663870801	93505.42663870801	93501.424550083	93505.425565875	4.0	841.21		3	5	1	1	62	240	1000	1050	93478.71204625	93478.876229083	93479.02430325	93479.18941875	93479.354394291
93496.07663870801	5.35	1	93499.82663870801	5.347905291986535		93505.426634875	93501.424544	93501.42663870801	93505.42663870801	93501.424550083	93505.425565875	4.0	1033.88		3	5	1	1	62	240	1000	1050	93478.71204625	93478.876229083	93479.02430325	93479.18941875	93479.354394291
93496.07663870801	5.35	0	93500.57663870801	5.347905291986535		93505.426634875	93501.424544	93501.42663870801	93505.42663870801	93501.424550083	93505.425565875	4.0	854.1		3	5	1	1	62	240	1000	1050	93478.71204625	93478.876229083	93479.02430325	93479.18941875	93479.354394291
93496.07663870801	5.35	0	93501.32663870801	5.347905291986535		93505.426634875	93501.424544	93501.42663870801	93505.42663870801	93501.424550083	93505.425565875	4.0	845.33		3	5	1	1	62	240	1000	1050	93478.71204625	93478.876229083	93479.02430325	93479.18941875	93479.354394291
93505.43319737501	5.35	0	93505.43319737501	5.347533915992244		93515.283191458	93510.780731291	93510.78319737501	93515.28319737501	93510.780737666	93515.281403958	4.5	835.74		3	4	1	1	63	240	1000	1050	93478.71204625	93478.876229083	93479.02430325	93479.18941875	93479.354394291
93505.43319737501	5.35	0	93506.18319737501	5.347533915992244		93515.283191458	93510.780731291	93510.78319737501	93515.28319737501	93510.780737666	93515.281403958	4.5	842.21		3	4	1	1	63	240	1000	1050	93478.71204625	93478.876229083	93479.02430325	93479.18941875	93479.354394291
93505.43319737501	5.35	0	93506.93319737501	5.347533915992244		93515.283191458	93510.780731291	93510.78319737501	93515.28319737501	93510.780737666	93515.281403958	4.5	831.86		3	4	1	1	63	240	1000	1050	93478.71204625	93478.876229083	93479.02430325	93479.18941875	93479.354394291
93505.43319737501	5.35	0	93507.68319737501	5.347533915992244		93515.283191458	93510.780731291	93510.78319737501	93515.28319737501	93510.780737666	93515.281403958	4.5	824.65		3	4	1	1	63	240	1000	1050	93478.71204625	93478.876229083	93479.02430325	93479.18941875	93479.354394291
93505.43319737501	5.35	1	93508.43319737501	5.347533915992244		93515.283191458	93510.780731291	93510.78319737501	93515.28319737501	93510.780737666	93515.281403958	4.5	1030.6		3	4	1	1	63	240	1000	1050	93478.71204625	93478.876229083	93479.02430325	93479.18941875	93479.354394291
93505.43319737501	5.35	0	93509.18319737501	5.347533915992244		93515.283191458	93510.780731291	93510.78319737501	93515.28319737501	93510.780737666	93515.281403958	4.5	843.62		3	4	1	1	63	240	1000	1050	93478.71204625	93478.876229083	93479.02430325	93479.18941875	93479.354394291
93505.43319737501	5.35	0	93509.93319737501	5.347533915992244		93515.283191458	93510.780731291	93510.78319737501	93515.28319737501	93510.780737666	93515.281403958	4.5	846.97		3	4	1	1	63	240	1000	1050	93478.71204625	93478.876229083	93479.02430325	93479.18941875	93479.354394291
93505.43319737501	5.35	0	93510.68319737501	5.347533915992244		93515.283191458	93510.780731291	93510.78319737501	93515.28319737501	93510.780737666	93515.281403958	4.5	852.1		3	4	1	1	63	240	1000	1050	93478.71204625	93478.876229083	93479.02430325	93479.18941875	93479.354394291
93515.288503916	5.35	0	93515.288503916	5.349860834001447		93526.638493708	93520.63836475	93520.63850391601	93526.63850391601	93520.638369166	93526.637082833	6.0	854.98		3	3	0	1	64	240	1000	1050	93478.71204625	93478.876229083	93479.02430325	93479.18941875	93479.354394291
93515.288503916	5.35	0	93516.038503916	5.349860834001447		93526.638493708	93520.63836475	93520.63850391601	93526.63850391601	93520.638369166	93526.637082833	6.0	844.42		3	3	0	1	64	240	1000	1050	93478.71204625	93478.876229083	93479.02430325	93479.18941875	93479.354394291
93515.288503916	5.35	0	93516.788503916	5.349860834001447		93526.638493708	93520.63836475	93520.63850391601	93526.63850391601	93520.638369166	93526.637082833	6.0	843.57		3	3	0	1	64	240	1000	1050	93478.71204625	93478.876229083	93479.02430325	93479.18941875	93479.354394291
93515.288503916	5.35	1	93517.538503916	5.349860834001447		93526.638493708	93520.63836475	93520.63850391601	93526.63850391601	93520.638369166	93526.637082833	6.0	1058.0		3	3	0	1	64	240	1000	1050	93478.71204625	93478.876229083	93479.02430325	93479.18941875	93479.354394291
93515.288503916	5.35	0	93518.288503916	5.349860834001447		93526.638493708	93520.63836475	93520.63850391601	93526.63850391601	93520.638369166	93526.637082833	6.0	812.27		3	3	0	1	64	240	1000	1050	93478.71204625	93478.876229083	93479.02430325	93479.18941875	93479.354394291
93515.288503916	5.35	0	93519.038503916	5.349860834001447		93526.638493708	93520.63836475	93520.63850391601	93526.63850391601	93520.638369166	93526.637082833	6.0	829.36		3	3	0	1	64	240	1000	1050	93478.71204625	93478.876229083	93479.02430325	93479.18941875	93479.354394291
93515.288503916	5.35	0	93519.788503916	5.349860834001447		93526.638493708	93520.63836475	93520.63850391601	93526.63850391601	93520.638369166	93526.637082833	6.0	843.86		3	3	0	1	64	240	1000	1050	93478.71204625	93478.876229083	93479.02430325	93479.18941875	93479.354394291
93515.288503916	5.35	0	93520.538503916	5.349860834001447		93526.638493708	93520.63836475	93520.63850391601	93526.63850391601	93520.638369166	93526.637082833	6.0	852.54		3	3	0	1	64	240	1000	1050	93478.71204625	93478.876229083	93479.02430325	93479.18941875	93479.354394291
93526.64443120801	5.35	0	93526.64443120801	5.349445041982108		93537.494420458	93531.99387625	93531.99443120802	93537.49443120802	93531.993882666	93537.492112708	5.5	834.51		3	3	0	1	65	240	1000	1050	93478.71204625	93478.876229083	93479.02430325	93479.18941875	93479.354394291
93526.64443120801	5.35	0	93527.39443120801	5.349445041982108		93537.494420458	93531.99387625	93531.99443120802	93537.49443120802	93531.993882666	93537.492112708	5.5	855.31		3	3	0	1	65	240	1000	1050	93478.71204625	93478.876229083	93479.02430325	93479.18941875	93479.354394291
93526.64443120801	5.35	0	93528.14443120801	5.349445041982108		93537.494420458	93531.99387625	93531.99443120802	93537.49443120802	93531.993882666	93537.492112708	5.5	823.68		3	3	0	1	65	240	1000	1050	93478.71204625	93478.876229083	93479.02430325	93479.18941875	93479.354394291
93526.64443120801	5.35	1	93528.89443120801	5.349445041982108		93537.494420458	93531.99387625	93531.99443120802	93537.49443120802	93531.993882666	93537.492112708	5.5	1077.41		3	3	0	1	65	240	1000	1050	93478.71204625	93478.876229083	93479.02430325	93479.18941875	93479.354394291
93526.64443120801	5.35	0	93529.64443120801	5.349445041982108		93537.494420458	93531.99387625	93531.99443120802	93537.49443120802	93531.993882666	93537.492112708	5.5	836.26		3	3	0	1	65	240	1000	1050	93478.71204625	93478.876229083	93479.02430325	93479.18941875	93479.354394291
93526.64443120801	5.35	0	93530.39443120801	5.349445041982108		93537.494420458	93531.99387625	93531.99443120802	93537.49443120802	93531.993882666	93537.492112708	5.5	813.24		3	3	0	1	65	240	1000	1050	93478.71204625	93478.876229083	93479.02430325	93479.18941875	93479.354394291
93526.64443120801	5.35	0	93531.14443120801	5.349445041982108		93537.494420458	93531.99387625	93531.99443120802	93537.49443120802	93531.993882666	93537.492112708	5.5	838.28		3	3	0	1	65	240	1000	1050	93478.71204625	93478.876229083	93479.02430325	93479.18941875	93479.354394291
93526.64443120801	5.35	0	93531.89443120801	5.349445041982108		93537.494420458	93531.99387625	93531.99443120802	93537.49443120802	93531.993882666	93537.492112708	5.5	826.49		3	3	0	1	65	240	1000	1050	93478.71204625	93478.876229083	93479.02430325	93479.18941875	93479.354394291
93537.50160795801	5.35	0	93537.50160795801	5.348925749989576		93545.851600458	93542.850533708	93542.85160795801	93545.85160795801	93542.850540541	93545.850328666	3.0	807.62		3	3	0	1	66	240	1000	1050	93478.71204625	93478.876229083	93479.02430325	93479.18941875	93479.354394291
93537.50160795801	5.35	0	93538.25160795801	5.348925749989576		93545.851600458	93542.850533708	93542.85160795801	93545.85160795801	93542.850540541	93545.850328666	3.0	815.85		3	3	0	1	66	240	1000	1050	93478.71204625	93478.876229083	93479.02430325	93479.18941875	93479.354394291
93537.50160795801	5.35	0	93539.00160795801	5.348925749989576		93545.851600458	93542.850533708	93542.85160795801	93545.85160795801	93542.850540541	93545.850328666	3.0	827.48		3	3	0	1	66	240	1000	1050	93478.71204625	93478.876229083	93479.02430325	93479.18941875	93479.354394291
93537.50160795801	5.35	1	93539.75160795801	5.348925749989576		93545.851600458	93542.850533708	93542.85160795801	93545.85160795801	93542.850540541	93545.850328666	3.0	1072.24		3	3	0	1	66	240	1000	1050	93478.71204625	93478.876229083	93479.02430325	93479.18941875	93479.354394291
93537.50160795801	5.35	0	93540.50160795801	5.348925749989576		93545.851600458	93542.850533708	93542.85160795801	93545.85160795801	93542.850540541	93545.850328666	3.0	823.03		3	3	0	1	66	240	1000	1050	93478.71204625	93478.876229083	93479.02430325	93479.18941875	93479.354394291
93537.50160795801	5.35	0	93541.25160795801	5.348925749989576		93545.851600458	93542.850533708	93542.85160795801	93545.85160795801	93542.850540541	93545.850328666	3.0	794.06		3	3	0	1	66	240	1000	1050	93478.71204625	93478.876229083	93479.02430325	93479.18941875	93479.354394291
93537.50160795801	5.35	0	93542.00160795801	5.348925749989576		93545.851600458	93542.850533708	93542.85160795801	93545.85160795801	93542.850540541	93545.850328666	3.0	820.33		3	3	0	1	66	240	1000	1050	93478.71204625	93478.876229083	93479.02430325	93479.18941875	93479.354394291
93537.50160795801	5.35	0	93542.75160795801	5.348925749989576		93545.851600458	93542.850533708	93542.85160795801	93545.85160795801	93542.850540541	93545.850328666	3.0	804.03		3	3	0	1	66	240	1000	1050	93478.71204625	93478.876229083	93479.02430325	93479.18941875	93479.354394291
93545.860037958	5.35	0	93545.860037958	5.348591125002713		93554.710028208	93551.208629083	93551.21003795801	93554.71003795801	93551.208634083	93554.709056875	3.5	816.54		3	2	0	1	67	240	1000	1050	93478.71204625	93478.876229083	93479.02430325	93479.18941875	93479.354394291
93545.860037958	5.35	0	93546.610037958	5.348591125002713		93554.710028208	93551.208629083	93551.21003795801	93554.71003795801	93551.208634083	93554.709056875	3.5	806.29		3	2	0	1	67	240	1000	1050	93478.71204625	93478.876229083	93479.02430325	93479.18941875	93479.354394291
93545.860037958	5.35	1	93547.360037958	5.348591125002713		93554.710028208	93551.208629083	93551.21003795801	93554.71003795801	93551.208634083	93554.709056875	3.5	1098.2		3	2	0	1	67	240	1000	1050	93478.71204625	93478.876229083	93479.02430325	93479.18941875	93479.354394291
93545.860037958	5.35	0	93548.110037958	5.348591125002713		93554.710028208	93551.208629083	93551.21003795801	93554.71003795801	93551.208634083	93554.709056875	3.5	808.26		3	2	0	1	67	240	1000	1050	93478.71204625	93478.876229083	93479.02430325	93479.18941875	93479.354394291
93545.860037958	5.35	0	93548.860037958	5.348591125002713		93554.710028208	93551.208629083	93551.21003795801	93554.71003795801	93551.208634083	93554.709056875	3.5	799.26		3	2	0	1	67	240	1000	1050	93478.71204625	93478.876229083	93479.02430325	93479.18941875	93479.354394291
93545.860037958	5.35	0	93549.610037958	5.348591125002713		93554.710028208	93551.208629083	93551.21003795801	93554.71003795801	93551.208634083	93554.709056875	3.5	804.15		3	2	0	1	67	240	1000	1050	93478.71204625	93478.876229083	93479.02430325	93479.18941875	93479.354394291
93545.860037958	5.35	0	93550.360037958	5.348591125002713		93554.710028208	93551.208629083	93551.21003795801	93554.71003795801	93551.208634083	93554.709056875	3.5	802.4		3	2	0	1	67	240	1000	1050	93478.71204625	93478.876229083	93479.02430325	93479.18941875	93479.354394291
93545.860037958	5.35	0	93551.110037958	5.348591125002713		93554.710028208	93551.208629083	93551.21003795801	93554.71003795801	93551.208634083	93554.709056875	3.5	812.98		3	2	0	1	67	240	1000	1050	93478.71204625	93478.876229083	93479.02430325	93479.18941875	93479.354394291
93554.71752820801	5.35	0	93554.71752820801	5.348175541992532		93567.567512541	93560.06570375	93560.06752820802	93567.56752820802	93560.065708208	93567.565989625	7.5	825.81		3	4	0	1	68	240	1000	1050	93478.71204625	93478.876229083	93479.02430325	93479.18941875	93479.354394291
93554.71752820801	5.35	0	93555.46752820801	5.348175541992532		93567.567512541	93560.06570375	93560.06752820802	93567.56752820802	93560.065708208	93567.565989625	7.5	837.51		3	4	0	1	68	240	1000	1050	93478.71204625	93478.876229083	93479.02430325	93479.18941875	93479.354394291
93554.71752820801	5.35	0	93556.21752820801	5.348175541992532		93567.567512541	93560.06570375	93560.06752820802	93567.56752820802	93560.065708208	93567.565989625	7.5	820.3		3	4	0	1	68	240	1000	1050	93478.71204625	93478.876229083	93479.02430325	93479.18941875	93479.354394291
93554.71752820801	5.35	0	93556.96752820801	5.348175541992532		93567.567512541	93560.06570375	93560.06752820802	93567.56752820802	93560.065708208	93567.565989625	7.5	857.56		3	4	0	1	68	240	1000	1050	93478.71204625	93478.876229083	93479.02430325	93479.18941875	93479.354394291
93554.71752820801	5.35	1	93557.71752820801	5.348175541992532		93567.567512541	93560.06570375	93560.06752820802	93567.56752820802	93560.065708208	93567.565989625	7.5	1089.33		3	4	0	1	68	240	1000	1050	93478.71204625	93478.876229083	93479.02430325	93479.18941875	93479.354394291
93554.71752820801	5.35	0	93558.46752820801	5.348175541992532		93567.567512541	93560.06570375	93560.06752820802	93567.56752820802	93560.065708208	93567.565989625	7.5	839.91		3	4	0	1	68	240	1000	1050	93478.71204625	93478.876229083	93479.02430325	93479.18941875	93479.354394291
93554.71752820801	5.35	0	93559.21752820801	5.348175541992532		93567.567512541	93560.06570375	93560.06752820802	93567.56752820802	93560.065708208	93567.565989625	7.5	857.17		3	4	0	1	68	240	1000	1050	93478.71204625	93478.876229083	93479.02430325	93479.18941875	93479.354394291
93554.71752820801	5.35	0	93559.96752820801	5.348175541992532		93567.567512541	93560.06570375	93560.06752820802	93567.56752820802	93560.065708208	93567.565989625	7.5	849.97		3	4	0	1	68	240	1000	1050	93478.71204625	93478.876229083	93479.02430325	93479.18941875	93479.354394291
93567.574700041	5.35	0	93567.574700041	5.348086208992754		93578.424685791	93572.92278625	93572.92470004101	93578.42470004101	93572.922793916	93578.424234916	5.5	866.43		4	0	2	1	69	240	1000	1050	93478.71204625	93478.876229083	93479.02430325	93479.18941875	93479.354394291
93567.574700041	5.35	0	93568.324700041	5.348086208992754		93578.424685791	93572.92278625	93572.92470004101	93578.42470004101	93572.922793916	93578.424234916	5.5	854.03		4	0	2	1	69	240	1000	1050	93478.71204625	93478.876229083	93479.02430325	93479.18941875	93479.354394291
93567.574700041	5.35	0	93569.074700041	5.348086208992754		93578.424685791	93572.92278625	93572.92470004101	93578.42470004101	93572.922793916	93578.424234916	5.5	859.9		4	0	2	1	69	240	1000	1050	93478.71204625	93478.876229083	93479.02430325	93479.18941875	93479.354394291
93567.574700041	5.35	0	93569.824700041	5.348086208992754		93578.424685791	93572.92278625	93572.92470004101	93578.42470004101	93572.922793916	93578.424234916	5.5	868.48		4	0	2	1	69	240	1000	1050	93478.71204625	93478.876229083	93479.02430325	93479.18941875	93479.354394291
93567.574700041	5.35	0	93570.574700041	5.348086208992754		93578.424685791	93572.92278625	93572.92470004101	93578.42470004101	93572.922793916	93578.424234916	5.5	869.89		4	0	2	1	69	240	1000	1050	93478.71204625	93478.876229083	93479.02430325	93479.18941875	93479.354394291
93567.574700041	5.35	0	93571.324700041	5.348086208992754		93578.424685791	93572.92278625	93572.92470004101	93578.42470004101	93572.922793916	93578.424234916	5.5	857.36		4	0	2	1	69	240	1000	1050	93478.71204625	93478.876229083	93479.02430325	93479.18941875	93479.354394291
93567.574700041	5.35	0	93572.074700041	5.348086208992754		93578.424685791	93572.92278625	93572.92470004101	93578.42470004101	93572.922793916	93578.424234916	5.5	867.81		4	0	2	1	69	240	1000	1050	93478.71204625	93478.876229083	93479.02430325	93479.18941875	93479.354394291
93567.574700041	5.35	0	93572.824700041	5.348086208992754		93578.424685791	93572.92278625	93572.92470004101	93578.42470004101	93572.922793916	93578.424234916	5.5	869.97		4	0	2	1	69	240	1000	1050	93478.71204625	93478.876229083	93479.02430325	93479.18941875	93479.354394291
93578.43093579101	5.35	0	93578.43093579101	5.349720333993901		93589.780920041	93583.780656125	93583.78093579102	93589.78093579102	93583.780662583	93589.78035275	6.0	864.07		3	4	1	1	70	240	1000	1050	93478.71204625	93478.876229083	93479.02430325	93479.18941875	93479.354394291
93578.43093579101	5.35	0	93579.18093579101	5.349720333993901		93589.780920041	93583.780656125	93583.78093579102	93589.78093579102	93583.780662583	93589.78035275	6.0	883.16		3	4	1	1	70	240	1000	1050	93478.71204625	93478.876229083	93479.02430325	93479.18941875	93479.354394291
93578.43093579101	5.35	0	93579.93093579101	5.349720333993901		93589.780920041	93583.780656125	93583.78093579102	93589.78093579102	93583.780662583	93589.78035275	6.0	860.31		3	4	1	1	70	240	1000	1050	93478.71204625	93478.876229083	93479.02430325	93479.18941875	93479.354394291
93578.43093579101	5.35	0	93580.68093579101	5.349720333993901		93589.780920041	93583.780656125	93583.78093579102	93589.78093579102	93583.780662583	93589.78035275	6.0	836.4		3	4	1	1	70	240	1000	1050	93478.71204625	93478.876229083	93479.02430325	93479.18941875	93479.354394291
93578.43093579101	5.35	1	93581.43093579101	5.349720333993901		93589.780920041	93583.780656125	93583.78093579102	93589.78093579102	93583.780662583	93589.78035275	6.0	1096.25		3	4	1	1	70	240	1000	1050	93478.71204625	93478.876229083	93479.02430325	93479.18941875	93479.354394291
93578.43093579101	5.35	0	93582.18093579101	5.349720333993901		93589.780920041	93583.780656125	93583.78093579102	93589.78093579102	93583.780662583	93589.78035275	6.0	843.18		3	4	1	1	70	240	1000	1050	93478.71204625	93478.876229083	93479.02430325	93479.18941875	93479.354394291
93578.43093579101	5.35	0	93582.93093579101	5.349720333993901		93589.780920041	93583.780656125	93583.78093579102	93589.78093579102	93583.780662583	93589.78035275	6.0	857.35		3	4	1	1	70	240	1000	1050	93478.71204625	93478.876229083	93479.02430325	93479.18941875	93479.354394291
93578.43093579101	5.35	0	93583.68093579101	5.349720333993901		93589.780920041	93583.780656125	93583.78093579102	93589.78093579102	93583.780662583	93589.78035275	6.0	836.37		3	4	1	1	70	240	1000	1050	93478.71204625	93478.876229083	93479.02430325	93479.18941875	93479.354394291
93589.789045041	5.35	0	93589.789045041	5.349257291993126		93600.639029666	93595.138302333	93595.13904504101	93600.63904504101	93595.13830775	93600.638936791	5.5	849.27		3	5	1	1	71	240	1000	1050	93478.71204625	93478.876229083	93479.02430325	93479.18941875	93479.354394291
93589.789045041	5.35	0	93590.539045041	5.349257291993126		93600.639029666	93595.138302333	93595.13904504101	93600.63904504101	93595.13830775	93600.638936791	5.5	840.74		3	5	1	1	71	240	1000	1050	93478.71204625	93478.876229083	93479.02430325	93479.18941875	93479.354394291
93589.789045041	5.35	0	93591.289045041	5.349257291993126		93600.639029666	93595.138302333	93595.13904504101	93600.63904504101	93595.13830775	93600.638936791	5.5	868.34		3	5	1	1	71	240	1000	1050	93478.71204625	93478.876229083	93479.02430325	93479.18941875	93479.354394291
93589.789045041	5.35	0	93592.039045041	5.349257291993126		93600.639029666	93595.138302333	93595.13904504101	93600.63904504101	93595.13830775	93600.638936791	5.5	857.38		3	5	1	1	71	240	1000	1050	93478.71204625	93478.876229083	93479.02430325	93479.18941875	93479.354394291
93589.789045041	5.35	0	93592.789045041	5.349257291993126		93600.639029666	93595.138302333	93595.13904504101	93600.63904504101	93595.13830775	93600.638936791	5.5	862.04		3	5	1	1	71	240	1000	1050	93478.71204625	93478.876229083	93479.02430325	93479.18941875	93479.354394291
93589.789045041	5.35	1	93593.539045041	5.349257291993126		93600.639029666	93595.138302333	93595.13904504101	93600.63904504101	93595.13830775	93600.638936791	5.5	1085.85		3	5	1	1	71	240	1000	1050	93478.71204625	93478.876229083	93479.02430325	93479.18941875	93479.354394291
93589.789045041	5.35	0	93594.289045041	5.349257291993126		93600.639029666	93595.138302333	93595.13904504101	93600.63904504101	93595.13830775	93600.638936791	5.5	848.9		3	5	1	1	71	240	1000	1050	93478.71204625	93478.876229083	93479.02430325	93479.18941875	93479.354394291
93589.789045041	5.35	0	93595.039045041	5.349257291993126		93600.639029666	93595.138302333	93595.13904504101	93600.63904504101	93595.13830775	93600.638936791	5.5	863.02		3	5	1	1	71	240	1000	1050	93478.71204625	93478.876229083	93479.02430325	93479.18941875	93479.354394291
93600.64621716601	5.35	0	93600.64621716601	5.347894374994212		93609.4962035	93605.994111541	93605.99621716602	93609.49621716602	93605.994116291	93609.493676583	3.5	839.37		4	0	2	1	72	240	1000	1050	93478.71204625	93478.876229083	93479.02430325	93479.18941875	93479.354394291
93600.64621716601	5.35	0	93601.39621716601	5.347894374994212		93609.4962035	93605.994111541	93605.99621716602	93609.49621716602	93605.994116291	93609.493676583	3.5	892.37		4	0	2	1	72	240	1000	1050	93478.71204625	93478.876229083	93479.02430325	93479.18941875	93479.354394291
93600.64621716601	5.35	0	93602.14621716601	5.347894374994212		93609.4962035	93605.994111541	93605.99621716602	93609.49621716602	93605.994116291	93609.493676583	3.5	878.82		4	0	2	1	72	240	1000	1050	93478.71204625	93478.876229083	93479.02430325	93479.18941875	93479.354394291
93600.64621716601	5.35	0	93602.89621716601	5.347894374994212		93609.4962035	93605.994111541	93605.99621716602	93609.49621716602	93605.994116291	93609.493676583	3.5	867.36		4	0	2	1	72	240	1000	1050	93478.71204625	93478.876229083	93479.02430325	93479.18941875	93479.354394291
93600.64621716601	5.35	0	93603.64621716601	5.347894374994212		93609.4962035	93605.994111541	93605.99621716602	93609.49621716602	93605.994116291	93609.493676583	3.5	888.93		4	0	2	1	72	240	1000	1050	93478.71204625	93478.876229083	93479.02430325	93479.18941875	93479.354394291
93600.64621716601	5.35	0	93604.39621716601	5.347894374994212		93609.4962035	93605.994111541	93605.99621716602	93609.49621716602	93605.994116291	93609.493676583	3.5	846.71		4	0	2	1	72	240	1000	1050	93478.71204625	93478.876229083	93479.02430325	93479.18941875	93479.354394291
93600.64621716601	5.35	0	93605.14621716601	5.347894374994212		93609.4962035	93605.994111541	93605.99621716602	93609.49621716602	93605.994116291	93609.493676583	3.5	855.27		4	0	2	1	72	240	1000	1050	93478.71204625	93478.876229083	93479.02430325	93479.18941875	93479.354394291
93600.64621716601	5.35	0	93605.89621716601	5.347894374994212		93609.4962035	93605.994111541	93605.99621716602	93609.49621716602	93605.994116291	93609.493676583	3.5	866.6		4	0	2	1	72	240	1000	1050	93478.71204625	93478.876229083	93479.02430325	93479.18941875	93479.354394291
93609.501828458	5.35	0	93609.501828458	5.3491082079999615		93621.351810166	93614.850936666	93614.851828458	93621.351828458	93614.850944458	93621.350676875	6.5	881.47		3	4	0	1	73	240	1000	1050	93478.71204625	93478.876229083	93479.02430325	93479.18941875	93479.354394291
93609.501828458	5.35	0	93610.251828458	5.3491082079999615		93621.351810166	93614.850936666	93614.851828458	93621.351828458	93614.850944458	93621.350676875	6.5	861.03		3	4	0	1	73	240	1000	1050	93478.71204625	93478.876229083	93479.02430325	93479.18941875	93479.354394291
93609.501828458	5.35	0	93611.001828458	5.3491082079999615		93621.351810166	93614.850936666	93614.851828458	93621.351828458	93614.850944458	93621.350676875	6.5	854.52		3	4	0	1	73	240	1000	1050	93478.71204625	93478.876229083	93479.02430325	93479.18941875	93479.354394291
93609.501828458	5.35	0	93611.751828458	5.3491082079999615		93621.351810166	93614.850936666	93614.851828458	93621.351828458	93614.850944458	93621.350676875	6.5	840.88		3	4	0	1	73	240	1000	1050	93478.71204625	93478.876229083	93479.02430325	93479.18941875	93479.354394291
93609.501828458	5.35	1	93612.501828458	5.3491082079999615		93621.351810166	93614.850936666	93614.851828458	93621.351828458	93614.850944458	93621.350676875	6.5	1087.77		3	4	0	1	73	240	1000	1050	93478.71204625	93478.876229083	93479.02430325	93479.18941875	93479.354394291
93609.501828458	5.35	0	93613.251828458	5.3491082079999615		93621.351810166	93614.850936666	93614.851828458	93621.351828458	93614.850944458	93621.350676875	6.5	854.77		3	4	0	1	73	240	1000	1050	93478.71204625	93478.876229083	93479.02430325	93479.18941875	93479.354394291
93609.501828458	5.35	0	93614.001828458	5.3491082079999615		93621.351810166	93614.850936666	93614.851828458	93621.351828458	93614.850944458	93621.350676875	6.5	858.47		3	4	0	1	73	240	1000	1050	93478.71204625	93478.876229083	93479.02430325	93479.18941875	93479.354394291
93609.501828458	5.35	0	93614.751828458	5.3491082079999615		93621.351810166	93614.850936666	93614.851828458	93621.351828458	93614.850944458	93621.350676875	6.5	840.22		3	4	0	1	73	240	1000	1050	93478.71204625	93478.876229083	93479.02430325	93479.18941875	93479.354394291
93621.358685125	5.35	0	93621.358685125	5.347433040995384		93630.208673041	93626.706118166	93626.708685125	93630.208685125	93626.706122833	93630.206667458	3.5	839.15		3	4	0	1	74	240	1000	1050	93478.71204625	93478.876229083	93479.02430325	93479.18941875	93479.354394291
93621.358685125	5.35	0	93622.108685125	5.347433040995384		93630.208673041	93626.706118166	93626.708685125	93630.208685125	93626.706122833	93630.206667458	3.5	822.14		3	4	0	1	74	240	1000	1050	93478.71204625	93478.876229083	93479.02430325	93479.18941875	93479.354394291
93621.358685125	5.35	0	93622.858685125	5.347433040995384		93630.208673041	93626.706118166	93626.708685125	93630.208685125	93626.706122833	93630.206667458	3.5	862.96		3	4	0	1	74	240	1000	1050	93478.71204625	93478.876229083	93479.02430325	93479.18941875	93479.354394291
93621.358685125	5.35	0	93623.608685125	5.347433040995384		93630.208673041	93626.706118166	93626.708685125	93630.208685125	93626.706122833	93630.206667458	3.5	858.3		3	4	0	1	74	240	1000	1050	93478.71204625	93478.876229083	93479.02430325	93479.18941875	93479.354394291
93621.358685125	5.35	1	93624.358685125	5.347433040995384		93630.208673041	93626.706118166	93626.708685125	93630.208685125	93626.706122833	93630.206667458	3.5	1072.57		3	4	0	1	74	240	1000	1050	93478.71204625	93478.876229083	93479.02430325	93479.18941875	93479.354394291
93621.358685125	5.35	0	93625.108685125	5.347433040995384		93630.208673041	93626.706118166	93626.708685125	93630.208685125	93626.706122833	93630.206667458	3.5	860.33		3	4	0	1	74	240	1000	1050	93478.71204625	93478.876229083	93479.02430325	93479.18941875	93479.354394291
93621.358685125	5.35	0	93625.858685125	5.347433040995384		93630.208673041	93626.706118166	93626.708685125	93630.208685125	93626.706122833	93630.206667458	3.5	852.39		3	4	0	1	74	240	1000	1050	93478.71204625	93478.876229083	93479.02430325	93479.18941875	93479.354394291
93621.358685125	5.35	0	93626.608685125	5.347433040995384		93630.208673041	93626.706118166	93626.708685125	93630.208685125	93626.706122833	93630.206667458	3.5	831.31		3	4	0	1	74	240	1000	1050	93478.71204625	93478.876229083	93479.02430325	93479.18941875	93479.354394291
93630.213985541	5.35	0	93630.213985541	5.347578333996353		93639.5639755	93635.561563875	93635.56398554101	93639.56398554101	93635.561569166	93639.56359375	4.0	856.32		3	4	0	1	75	240	1000	1050	93478.71204625	93478.876229083	93479.02430325	93479.18941875	93479.354394291
93630.213985541	5.35	0	93630.963985541	5.347578333996353		93639.5639755	93635.561563875	93635.56398554101	93639.56398554101	93635.561569166	93639.56359375	4.0	859.23		3	4	0	1	75	240	1000	1050	93478.71204625	93478.876229083	93479.02430325	93479.18941875	93479.354394291
93630.213985541	5.35	0	93631.713985541	5.347578333996353		93639.5639755	93635.561563875	93635.56398554101	93639.56398554101	93635.561569166	93639.56359375	4.0	864.23		3	4	0	1	75	240	1000	1050	93478.71204625	93478.876229083	93479.02430325	93479.18941875	93479.354394291
93630.213985541	5.35	0	93632.463985541	5.347578333996353		93639.5639755	93635.561563875	93635.56398554101	93639.56398554101	93635.561569166	93639.56359375	4.0	844.48		3	4	0	1	75	240	1000	1050	93478.71204625	93478.876229083	93479.02430325	93479.18941875	93479.354394291
93630.213985541	5.35	1	93633.213985541	5.347578333996353		93639.5639755	93635.561563875	93635.56398554101	93639.56398554101	93635.561569166	93639.56359375	4.0	1069.28		3	4	0	1	75	240	1000	1050	93478.71204625	93478.876229083	93479.02430325	93479.18941875	93479.354394291
93630.213985541	5.35	0	93633.963985541	5.347578333996353		93639.5639755	93635.561563875	93635.56398554101	93639.56398554101	93635.561569166	93639.56359375	4.0	842.56		3	4	0	1	75	240	1000	1050	93478.71204625	93478.876229083	93479.02430325	93479.18941875	93479.354394291
93630.213985541	5.35	0	93634.713985541	5.347578333996353		93639.5639755	93635.561563875	93635.56398554101	93639.56398554101	93635.561569166	93639.56359375	4.0	830.31		3	4	0	1	75	240	1000	1050	93478.71204625	93478.876229083	93479.02430325	93479.18941875	93479.354394291
93630.213985541	5.35	0	93635.463985541	5.347578333996353		93639.5639755	93635.561563875	93635.56398554101	93639.56398554101	93635.561569166	93639.56359375	4.0	839.13		3	4	0	1	75	240	1000	1050	93478.71204625	93478.876229083	93479.02430325	93479.18941875	93479.354394291
93639.57085050001	5.35	0	93639.57085050001	5.349048624993884		93651.420836625	93644.919899125	93644.92085050001	93651.42085050001	93644.919905291	93651.419033125	6.5	828.79		3	4	1	1	76	240	1000	1050	93478.71204625	93478.876229083	93479.02430325	93479.18941875	93479.354394291
93639.57085050001	5.35	0	93640.32085050001	5.349048624993884		93651.420836625	93644.919899125	93644.92085050001	93651.42085050001	93644.919905291	93651.419033125	6.5	817.83		3	4	1	1	76	240	1000	1050	93478.71204625	93478.876229083	93479.02430325	93479.18941875	93479.354394291
93639.57085050001	5.35	0	93641.07085050001	5.349048624993884		93651.420836625	93644.919899125	93644.92085050001	93651.42085050001	93644.919905291	93651.419033125	6.5	842.25		3	4	1	1	76	240	1000	1050	93478.71204625	93478.876229083	93479.02430325	93479.18941875	93479.354394291
93639.57085050001	5.35	0	93641.82085050001	5.349048624993884		93651.420836625	93644.919899125	93644.92085050001	93651.42085050001	93644.919905291	93651.419033125	6.5	821.32		3	4	1	1	76	240	1000	1050	93478.71204625	93478.876229083	93479.02430325	93479.18941875	93479.354394291
93639.57085050001	5.35	1	93642.57085050001	5.349048624993884		93651.420836625	93644.919899125	93644.92085050001	93651.42085050001	93644.919905291	93651.419033125	6.5	1055.19		3	4	1	1	76	240	1000	1050	93478.71204625	93478.876229083	93479.02430325	93479.18941875	93479.354394291
93639.57085050001	5.35	0	93643.32085050001	5.349048624993884		93651.420836625	93644.919899125	93644.92085050001	93651.42085050001	93644.919905291	93651.419033125	6.5	847.03		3	4	1	1	76	240	1000	1050	93478.71204625	93478.876229083	93479.02430325	93479.18941875	93479.354394291
93639.57085050001	5.35	0	93644.07085050001	5.349048624993884		93651.420836625	93644.919899125	93644.92085050001	93651.42085050001	93644.919905291	93651.419033125	6.5	864.27		3	4	1	1	76	240	1000	1050	93478.71204625	93478.876229083	93479.02430325	93479.18941875	93479.354394291
93639.57085050001	5.35	0	93644.82085050001	5.349048624993884		93651.420836625	93644.919899125	93644.92085050001	93651.42085050001	93644.919905291	93651.419033125	6.5	872.07		3	4	1	1	76	240	1000	1050	93478.71204625	93478.876229083	93479.02430325	93479.18941875	93479.354394291
93651.42677412501	5.35	0	93651.42677412501	5.349717707998934		93662.777591791	93656.776491833	93656.77677412501	93662.77677412501	93656.776500041	93662.776320333	6.0	863.76		3	5	1	1	77	240	1000	1050	93478.71204625	93478.876229083	93479.02430325	93479.18941875	93479.354394291
93651.42677412501	5.35	0	93652.17677412501	5.349717707998934		93662.777591791	93656.776491833	93656.77677412501	93662.77677412501	93656.776500041	93662.776320333	6.0	880.26		3	5	1	1	77	240	1000	1050	93478.71204625	93478.876229083	93479.02430325	93479.18941875	93479.354394291
93651.42677412501	5.35	0	93652.92677412501	5.349717707998934		93662.777591791	93656.776491833	93656.77677412501	93662.77677412501	93656.776500041	93662.776320333	6.0	863.68		3	5	1	1	77	240	1000	1050	93478.71204625	93478.876229083	93479.02430325	93479.18941875	93479.354394291
93651.42677412501	5.35	0	93653.67677412501	5.349717707998934		93662.777591791	93656.776491833	93656.77677412501	93662.77677412501	93656.776500041	93662.776320333	6.0	911.89		3	5	1	1	77	240	1000	1050	93478.71204625	93478.876229083	93479.02430325	93479.18941875	93479.354394291
93651.42677412501	5.35	0	93654.42677412501	5.349717707998934		93662.777591791	93656.776491833	93656.77677412501	93662.77677412501	93656.776500041	93662.776320333	6.0	915.48		3	5	1	1	77	240	1000	1050	93478.71204625	93478.876229083	93479.02430325	93479.18941875	93479.354394291
93651.42677412501	5.35	1	93655.17677412501	5.349717707998934		93662.777591791	93656.776491833	93656.77677412501	93662.77677412501	93656.776500041	93662.776320333	6.0	1069.02		3	5	1	1	77	240	1000	1050	93478.71204625	93478.876229083	93479.02430325	93479.18941875	93479.354394291
93651.42677412501	5.35	0	93655.92677412501	5.349717707998934		93662.777591791	93656.776491833	93656.77677412501	93662.77677412501	93656.776500041	93662.776320333	6.0	887.5		3	5	1	1	77	240	1000	1050	93478.71204625	93478.876229083	93479.02430325	93479.18941875	93479.354394291
93651.42677412501	5.35	0	93656.67677412501	5.349717707998934		93662.777591791	93656.776491833	93656.77677412501	93662.77677412501	93656.776500041	93662.776320333	6.0	894.14		3	5	1	1	77	240	1000	1050	93478.71204625	93478.876229083	93479.02430325	93479.18941875	93479.354394291
93662.783529291	5.35	0	93662.783529291	5.349475875002099		93675.633511041	93668.133005166	93668.13352929101	93675.63352929101	93668.133009333	93675.633382708	7.5	879.99		3	4	1	1	78	240	1000	1050	93478.71204625	93478.876229083	93479.02430325	93479.18941875	93479.354394291
93662.783529291	5.35	0	93663.533529291	5.349475875002099		93675.633511041	93668.133005166	93668.13352929101	93675.63352929101	93668.133009333	93675.633382708	7.5	897.09		3	4	1	1	78	240	1000	1050	93478.71204625	93478.876229083	93479.02430325	93479.18941875	93479.354394291
93662.783529291	5.35	0	93664.283529291	5.349475875002099		93675.633511041	93668.133005166	93668.13352929101	93675.63352929101	93668.133009333	93675.633382708	7.5	889.88		3	4	1	1	78	240	1000	1050	93478.71204625	93478.876229083	93479.02430325	93479.18941875	93479.354394291
93662.783529291	5.35	0	93665.033529291	5.349475875002099		93675.633511041	93668.133005166	93668.13352929101	93675.63352929101	93668.133009333	93675.633382708	7.5	884.14		3	4	1	1	78	240	1000	1050	93478.71204625	93478.876229083	93479.02430325	93479.18941875	93479.354394291
93662.783529291	5.35	1	93665.783529291	5.349475875002099		93675.633511041	93668.133005166	93668.13352929101	93675.63352929101	93668.133009333	93675.633382708	7.5	1051.02		3	4	1	1	78	240	1000	1050	93478.71204625	93478.876229083	93479.02430325	93479.18941875	93479.354394291
93662.783529291	5.35	0	93666.533529291	5.349475875002099		93675.633511041	93668.133005166	93668.13352929101	93675.63352929101	93668.133009333	93675.633382708	7.5	873.33		3	4	1	1	78	240	1000	1050	93478.71204625	93478.876229083	93479.02430325	93479.18941875	93479.354394291
93662.783529291	5.35	0	93667.283529291	5.349475875002099		93675.633511041	93668.133005166	93668.13352929101	93675.63352929101	93668.133009333	93675.633382708	7.5	860.24		3	4	1	1	78	240	1000	1050	93478.71204625	93478.876229083	93479.02430325	93479.18941875	93479.354394291
93662.783529291	5.35	0	93668.033529291	5.349475875002099		93675.633511041	93668.133005166	93668.13352929101	93675.63352929101	93668.133009333	93675.633382708	7.5	893.65		3	4	1	1	78	240	1000	1050	93478.71204625	93478.876229083	93479.02430325	93479.18941875	93479.354394291
93675.6400735	5.35	0	93675.6400735	5.348016624993761		93685.990058333	93680.988090125	93680.99007350001	93685.99007350001	93680.988097	93685.989501916	5.0	904.58		3	6	1	1	79	240	1000	1050	93478.71204625	93478.876229083	93479.02430325	93479.18941875	93479.354394291
93675.6400735	5.35	0	93676.3900735	5.348016624993761		93685.990058333	93680.988090125	93680.99007350001	93685.99007350001	93680.988097	93685.989501916	5.0	908.09		3	6	1	1	79	240	1000	1050	93478.71204625	93478.876229083	93479.02430325	93479.18941875	93479.354394291
93675.6400735	5.35	0	93677.1400735	5.348016624993761		93685.990058333	93680.988090125	93680.99007350001	93685.99007350001	93680.988097	93685.989501916	5.0	909.11		3	6	1	1	79	240	1000	1050	93478.71204625	93478.876229083	93479.02430325	93479.18941875	93479.354394291
93675.6400735	5.35	0	93677.8900735	5.348016624993761		93685.990058333	93680.988090125	93680.99007350001	93685.99007350001	93680.988097	93685.989501916	5.0	890.28		3	6	1	1	79	240	1000	1050	93478.71204625	93478.876229083	93479.02430325	93479.18941875	93479.354394291
93675.6400735	5.35	0	93678.6400735	5.348016624993761		93685.990058333	93680.988090125	93680.99007350001	93685.99007350001	93680.988097	93685.989501916	5.0	883.24		3	6	1	1	79	240	1000	1050	93478.71204625	93478.876229083	93479.02430325	93479.18941875	93479.354394291
93675.6400735	5.35	0	93679.3900735	5.348016624993761		93685.990058333	93680.988090125	93680.99007350001	93685.99007350001	93680.988097	93685.989501916	5.0	859.68		3	6	1	1	79	240	1000	1050	93478.71204625	93478.876229083	93479.02430325	93479.18941875	93479.354394291
93675.6400735	5.35	1	93680.1400735	5.348016624993761		93685.990058333	93680.988090125	93680.99007350001	93685.99007350001	93680.988097	93685.989501916	5.0	1064.62		3	6	1	1	79	240	1000	1050	93478.71204625	93478.876229083	93479.02430325	93479.18941875	93479.354394291
93675.6400735	5.35	0	93680.8900735	5.348016624993761		93685.990058333	93680.988090125	93680.99007350001	93685.99007350001	93680.988097	93685.989501916	5.0	864.08		3	6	1	1	79	240	1000	1050	93478.71204625	93478.876229083	93479.02430325	93479.18941875	93479.354394291
93686.000370833	5.35	0	93686.000370833	5.349135791999288		93695.350356708	93691.349506625	93691.35037083301	93695.35037083301	93691.349512541	93695.349017708	4.0	909.48		3	6	1	1	80	240	1000	1050	93478.71204625	93478.876229083	93479.02430325	93479.18941875	93479.354394291
93686.000370833	5.35	0	93686.750370833	5.349135791999288		93695.350356708	93691.349506625	93691.35037083301	93695.35037083301	93691.349512541	93695.349017708	4.0	911.42		3	6	1	1	80	240	1000	1050	93478.71204625	93478.876229083	93479.02430325	93479.18941875	93479.354394291
93686.000370833	5.35	0	93687.500370833	5.349135791999288		93695.350356708	93691.349506625	93691.35037083301	93695.35037083301	93691.349512541	93695.349017708	4.0	908.09		3	6	1	1	80	240	1000	1050	93478.71204625	93478.876229083	93479.02430325	93479.18941875	93479.354394291
93686.000370833	5.35	0	93688.250370833	5.349135791999288		93695.350356708	93691.349506625	93691.35037083301	93695.35037083301	93691.349512541	93695.349017708	4.0	908.36		3	6	1	1	80	240	1000	1050	93478.71204625	93478.876229083	93479.02430325	93479.18941875	93479.354394291
93686.000370833	5.35	0	93689.000370833	5.349135791999288		93695.350356708	93691.349506625	93691.35037083301	93695.35037083301	93691.349512541	93695.349017708	4.0	909.4		3	6	1	1	80	240	1000	1050	93478.71204625	93478.876229083	93479.02430325	93479.18941875	93479.354394291
93686.000370833	5.35	0	93689.750370833	5.349135791999288		93695.350356708	93691.349506625	93691.35037083301	93695.35037083301	93691.349512541	93695.349017708	4.0	893.89		3	6	1	1	80	240	1000	1050	93478.71204625	93478.876229083	93479.02430325	93479.18941875	93479.354394291
93686.000370833	5.35	1	93690.500370833	5.349135791999288		93695.350356708	93691.349506625	93691.35037083301	93695.35037083301	93691.349512541	93695.349017708	4.0	1037.69		3	6	1	1	80	240	1000	1050	93478.71204625	93478.876229083	93479.02430325	93479.18941875	93479.354394291
93686.000370833	5.35	0	93691.250370833	5.349135791999288		93695.350356708	93691.349506625	93691.35037083301	93695.35037083301	93691.349512541	93695.349017708	4.0	907.27		3	6	1	1	80	240	1000	1050	93478.71204625	93478.876229083	93479.02430325	93479.18941875	93479.354394291
93695.35535670801	5.35	0	93695.35535670801	5.349522666991106		93704.705341958	93700.704879375	93700.70535670801	93704.70535670801	93700.704883916	93704.704328	4.0	894.92		3	5	1	1	81	240	1000	1050	93478.71204625	93478.876229083	93479.02430325	93479.18941875	93479.354394291
93695.35535670801	5.35	0	93696.10535670801	5.349522666991106		93704.705341958	93700.704879375	93700.70535670801	93704.70535670801	93700.704883916	93704.704328	4.0	916.26		3	5	1	1	81	240	1000	1050	93478.71204625	93478.876229083	93479.02430325	93479.18941875	93479.354394291
93695.35535670801	5.35	0	93696.85535670801	5.349522666991106		93704.705341958	93700.704879375	93700.70535670801	93704.70535670801	93700.704883916	93704.704328	4.0	924.79		3	5	1	1	81	240	1000	1050	93478.71204625	93478.876229083	93479.02430325	93479.18941875	93479.354394291
93695.35535670801	5.35	0	93697.60535670801	5.349522666991106		93704.705341958	93700.704879375	93700.70535670801	93704.70535670801	93700.704883916	93704.704328	4.0	926.51		3	5	1	1	81	240	1000	1050	93478.71204625	93478.876229083	93479.02430325	93479.18941875	93479.354394291
93695.35535670801	5.35	0	93698.35535670801	5.349522666991106		93704.705341958	93700.704879375	93700.70535670801	93704.70535670801	93700.704883916	93704.704328	4.0	919.05		3	5	1	1	81	240	1000	1050	93478.71204625	93478.876229083	93479.02430325	93479.18941875	93479.354394291
93695.35535670801	5.35	1	93699.10535670801	5.349522666991106		93704.705341958	93700.704879375	93700.70535670801	93704.70535670801	93700.704883916	93704.704328	4.0	1040.36		3	5	1	1	81	240	1000	1050	93478.71204625	93478.876229083	93479.02430325	93479.18941875	93479.354394291
93695.35535670801	5.35	0	93699.85535670801	5.349522666991106		93704.705341958	93700.704879375	93700.70535670801	93704.70535670801	93700.704883916	93704.704328	4.0	913.89		3	5	1	1	81	240	1000	1050	93478.71204625	93478.876229083	93479.02430325	93479.18941875	93479.354394291
93695.35535670801	5.35	0	93700.60535670801	5.349522666991106		93704.705341958	93700.704879375	93700.70535670801	93704.70535670801	93700.704883916	93704.704328	4.0	894.63		3	5	1	1	81	240	1000	1050	93478.71204625	93478.876229083	93479.02430325	93479.18941875	93479.354394291
93704.71159195801	5.35	0	93704.71159195801	5.346835582982749		93715.061577458	93710.058427541	93710.06159195802	93715.06159195802	93710.058436166	93715.059969791	5.0	898.47		3	6	1	1	82	240	1000	1050	93478.71204625	93478.876229083	93479.02430325	93479.18941875	93479.354394291
93704.71159195801	5.35	0	93705.46159195801	5.346835582982749		93715.061577458	93710.058427541	93710.06159195802	93715.06159195802	93710.058436166	93715.059969791	5.0	885.46		3	6	1	1	82	240	1000	1050	93478.71204625	93478.876229083	93479.02430325	93479.18941875	93479.354394291
93704.71159195801	5.35	0	93706.21159195801	5.346835582982749		93715.061577458	93710.058427541	93710.06159195802	93715.06159195802	93710.058436166	93715.059969791	5.0	862.53		3	6	1	1	82	240	1000	1050	93478.71204625	93478.876229083	93479.02430325	93479.18941875	93479.354394291
93704.71159195801	5.35	0	93706.96159195801	5.346835582982749		93715.061577458	93710.058427541	93710.06159195802	93715.06159195802	93710.058436166	93715.059969791	5.0	904.04		3	6	1	1	82	240	1000	1050	93478.71204625	93478.876229083	93479.02430325	93479.18941875	93479.354394291
93704.71159195801	5.35	0	93707.71159195801	5.346835582982749		93715.061577458	93710.058427541	93710.06159195802	93715.06159195802	93710.058436166	93715.059969791	5.0	894.49		3	6	1	1	82	240	1000	1050	93478.71204625	93478.876229083	93479.02430325	93479.18941875	93479.354394291
93704.71159195801	5.35	0	93708.46159195801	5.346835582982749		93715.061577458	93710.058427541	93710.06159195802	93715.06159195802	93710.058436166	93715.059969791	5.0	901.0		3	6	1	1	82	240	1000	1050	93478.71204625	93478.876229083	93479.02430325	93479.18941875	93479.354394291
93704.71159195801	5.35	1	93709.21159195801	5.346835582982749		93715.061577458	93710.058427541	93710.06159195802	93715.06159195802	93710.058436166	93715.059969791	5.0	1057.84		3	6	1	1	82	240	1000	1050	93478.71204625	93478.876229083	93479.02430325	93479.18941875	93479.354394291
93704.71159195801	5.35	0	93709.96159195801	5.346835582982749		93715.061577458	93710.058427541	93710.06159195802	93715.06159195802	93710.058436166	93715.059969791	5.0	898.57		3	6	1	1	82	240	1000	1050	93478.71204625	93478.876229083	93479.02430325	93479.18941875	93479.354394291
93715.06720245801	5.35	0	93715.06720245801	5.348247749992879		93726.91718675	93720.415450208	93720.41720245802	93726.91720245802	93720.415455333	93726.916091708	6.5	922.8		3	4	1	1	83	240	1000	1050	93478.71204625	93478.876229083	93479.02430325	93479.18941875	93479.354394291
93715.06720245801	5.35	0	93715.81720245801	5.348247749992879		93726.91718675	93720.415450208	93720.41720245802	93726.91720245802	93720.415455333	93726.916091708	6.5	884.04		3	4	1	1	83	240	1000	1050	93478.71204625	93478.876229083	93479.02430325	93479.18941875	93479.354394291
93715.06720245801	5.35	0	93716.56720245801	5.348247749992879		93726.91718675	93720.415450208	93720.41720245802	93726.91720245802	93720.415455333	93726.916091708	6.5	893.74		3	4	1	1	83	240	1000	1050	93478.71204625	93478.876229083	93479.02430325	93479.18941875	93479.354394291
93715.06720245801	5.35	0	93717.31720245801	5.348247749992879		93726.91718675	93720.415450208	93720.41720245802	93726.91720245802	93720.415455333	93726.916091708	6.5	886.14		3	4	1	1	83	240	1000	1050	93478.71204625	93478.876229083	93479.02430325	93479.18941875	93479.354394291
93715.06720245801	5.35	1	93718.06720245801	5.348247749992879		93726.91718675	93720.415450208	93720.41720245802	93726.91720245802	93720.415455333	93726.916091708	6.5	1073.32		3	4	1	1	83	240	1000	1050	93478.71204625	93478.876229083	93479.02430325	93479.18941875	93479.354394291
93715.06720245801	5.35	0	93718.81720245801	5.348247749992879		93726.91718675	93720.415450208	93720.41720245802	93726.91720245802	93720.415455333	93726.916091708	6.5	866.7		3	4	1	1	83	240	1000	1050	93478.71204625	93478.876229083	93479.02430325	93479.18941875	93479.354394291
93715.06720245801	5.35	0	93719.56720245801	5.348247749992879		93726.91718675	93720.415450208	93720.41720245802	93726.91720245802	93720.415455333	93726.916091708	6.5	887.65		3	4	1	1	83	240	1000	1050	93478.71204625	93478.876229083	93479.02430325	93479.18941875	93479.354394291
93715.06720245801	5.35	0	93720.31720245801	5.348247749992879		93726.91718675	93720.415450208	93720.41720245802	93726.91720245802	93720.415455333	93726.916091708	6.5	882.27		3	4	1	1	83	240	1000	1050	93478.71204625	93478.876229083	93479.02430325	93479.18941875	93479.354394291
93726.92468675	5.35	0	93726.92468675	5.347960040991893		93737.274673458	93732.272646791	93732.27468675001	93737.27468675001	93732.272652041	93737.27441375	5.0	906.27		3	5	1	1	84	240	1000	1050	93478.71204625	93478.876229083	93479.02430325	93479.18941875	93479.354394291
93726.92468675	5.35	0	93727.67468675	5.347960040991893		93737.274673458	93732.272646791	93732.27468675001	93737.27468675001	93732.272652041	93737.27441375	5.0	911.32		3	5	1	1	84	240	1000	1050	93478.71204625	93478.876229083	93479.02430325	93479.18941875	93479.354394291
93726.92468675	5.35	0	93728.42468675	5.347960040991893		93737.274673458	93732.272646791	93732.27468675001	93737.27468675001	93732.272652041	93737.27441375	5.0	902.99		3	5	1	1	84	240	1000	1050	93478.71204625	93478.876229083	93479.02430325	93479.18941875	93479.354394291
93726.92468675	5.35	0	93729.17468675	5.347960040991893		93737.274673458	93732.272646791	93732.27468675001	93737.27468675001	93732.272652041	93737.27441375	5.0	903.15		3	5	1	1	84	240	1000	1050	93478.71204625	93478.876229083	93479.02430325	93479.18941875	93479.354394291
93726.92468675	5.35	0	93729.92468675	5.347960040991893		93737.274673458	93732.272646791	93732.27468675001	93737.27468675001	93732.272652041	93737.27441375	5.0	850.41		3	5	1	1	84	240	1000	1050	93478.71204625	93478.876229083	93479.02430325	93479.18941875	93479.354394291
93726.92468675	5.35	1	93730.67468675	5.347960040991893		93737.274673458	93732.272646791	93732.27468675001	93737.27468675001	93732.272652041	93737.27441375	5.0	1084.61		3	5	1	1	84	240	1000	1050	93478.71204625	93478.876229083	93479.02430325	93479.18941875	93479.354394291
93726.92468675	5.35	0	93731.42468675	5.347960040991893		93737.274673458	93732.272646791	93732.27468675001	93737.27468675001	93732.272652041	93737.27441375	5.0	873.76		3	5	1	1	84	240	1000	1050	93478.71204625	93478.876229083	93479.02430325	93479.18941875	93479.354394291
93726.92468675	5.35	0	93732.17468675	5.347960040991893		93737.274673458	93732.272646791	93732.27468675001	93737.27468675001	93732.272652041	93737.27441375	5.0	853.15		3	5	1	1	84	240	1000	1050	93478.71204625	93478.876229083	93479.02430325	93479.18941875	93479.354394291
93737.28061095801	5.35	0	93737.28061095801	5.3493799999851035		93750.130594166	93742.629990958	93742.63061095802	93750.13061095802	93742.629995833	93750.128383291	7.5	868.26		3	2	0	1	85	240	1000	1050	93478.71204625	93478.876229083	93479.02430325	93479.18941875	93479.354394291
93737.28061095801	5.35	0	93738.03061095801	5.3493799999851035		93750.130594166	93742.629990958	93742.63061095802	93750.13061095802	93742.629995833	93750.128383291	7.5	858.01		3	2	0	1	85	240	1000	1050	93478.71204625	93478.876229083	93479.02430325	93479.18941875	93479.354394291
93737.28061095801	5.35	1	93738.78061095801	5.3493799999851035		93750.130594166	93742.629990958	93742.63061095802	93750.13061095802	93742.629995833	93750.128383291	7.5	1055.77		3	2	0	1	85	240	1000	1050	93478.71204625	93478.876229083	93479.02430325	93479.18941875	93479.354394291
93737.28061095801	5.35	0	93739.53061095801	5.3493799999851035		93750.130594166	93742.629990958	93742.63061095802	93750.13061095802	93742.629995833	93750.128383291	7.5	887.4		3	2	0	1	85	240	1000	1050	93478.71204625	93478.876229083	93479.02430325	93479.18941875	93479.354394291
93737.28061095801	5.35	0	93740.28061095801	5.3493799999851035		93750.130594166	93742.629990958	93742.63061095802	93750.13061095802	93742.629995833	93750.128383291	7.5	881.52		3	2	0	1	85	240	1000	1050	93478.71204625	93478.876229083	93479.02430325	93479.18941875	93479.354394291
93737.28061095801	5.35	0	93741.03061095801	5.3493799999851035		93750.130594166	93742.629990958	93742.63061095802	93750.13061095802	93742.629995833	93750.128383291	7.5	863.07		3	2	0	1	85	240	1000	1050	93478.71204625	93478.876229083	93479.02430325	93479.18941875	93479.354394291
93737.28061095801	5.35	0	93741.78061095801	5.3493799999851035		93750.130594166	93742.629990958	93742.63061095802	93750.13061095802	93742.629995833	93750.128383291	7.5	865.9		3	2	0	1	85	240	1000	1050	93478.71204625	93478.876229083	93479.02430325	93479.18941875	93479.354394291
93737.28061095801	5.35	0	93742.53061095801	5.3493799999851035		93750.130594166	93742.629990958	93742.63061095802	93750.13061095802	93742.629995833	93750.128383291	7.5	846.11		3	2	0	1	85	240	1000	1050	93478.71204625	93478.876229083	93479.02430325	93479.18941875	93479.354394291
93750.13590666601	5.35	0	93750.13590666601	5.34818699999596		93761.485890333	93755.484093666	93755.48590666601	93761.48590666601	93755.484098916	93761.484746666	6.0	879.7		3	2	0	1	86	240	1000	1050	93478.71204625	93478.876229083	93479.02430325	93479.18941875	93479.354394291
93750.13590666601	5.35	0	93750.88590666601	5.34818699999596		93761.485890333	93755.484093666	93755.48590666601	93761.48590666601	93755.484098916	93761.484746666	6.0	861.32		3	2	0	1	86	240	1000	1050	93478.71204625	93478.876229083	93479.02430325	93479.18941875	93479.354394291
93750.13590666601	5.35	1	93751.63590666601	5.34818699999596		93761.485890333	93755.484093666	93755.48590666601	93761.48590666601	93755.484098916	93761.484746666	6.0	1071.29		3	2	0	1	86	240	1000	1050	93478.71204625	93478.876229083	93479.02430325	93479.18941875	93479.354394291
93750.13590666601	5.35	0	93752.38590666601	5.34818699999596		93761.485890333	93755.484093666	93755.48590666601	93761.48590666601	93755.484098916	93761.484746666	6.0	878.22		3	2	0	1	86	240	1000	1050	93478.71204625	93478.876229083	93479.02430325	93479.18941875	93479.354394291
93750.13590666601	5.35	0	93753.13590666601	5.34818699999596		93761.485890333	93755.484093666	93755.48590666601	93761.48590666601	93755.484098916	93761.484746666	6.0	877.26		3	2	0	1	86	240	1000	1050	93478.71204625	93478.876229083	93479.02430325	93479.18941875	93479.354394291
93750.13590666601	5.35	0	93753.88590666601	5.34818699999596		93761.485890333	93755.484093666	93755.48590666601	93761.48590666601	93755.484098916	93761.484746666	6.0	873.52		3	2	0	1	86	240	1000	1050	93478.71204625	93478.876229083	93479.02430325	93479.18941875	93479.354394291
93750.13590666601	5.35	0	93754.63590666601	5.34818699999596		93761.485890333	93755.484093666	93755.48590666601	93761.48590666601	93755.484098916	93761.484746666	6.0	879.25		3	2	0	1	86	240	1000	1050	93478.71204625	93478.876229083	93479.02430325	93479.18941875	93479.354394291
93750.13590666601	5.35	0	93755.38590666601	5.34818699999596		93761.485890333	93755.484093666	93755.48590666601	93761.48590666601	93755.484098916	93761.484746666	6.0	863.91		3	2	0	1	86	240	1000	1050	93478.71204625	93478.876229083	93479.02430325	93479.18941875	93479.354394291
93761.491202791	5.35	0	93761.491202791	5.347402833998785		93770.341190125	93766.838605625	93766.84120279101	93770.34120279101	93766.838612958	93770.341162291	3.5	862.01		3	3	0	1	87	240	1000	1050	93478.71204625	93478.876229083	93479.02430325	93479.18941875	93479.354394291
93761.491202791	5.35	0	93762.241202791	5.347402833998785		93770.341190125	93766.838605625	93766.84120279101	93770.34120279101	93766.838612958	93770.341162291	3.5	842.13		3	3	0	1	87	240	1000	1050	93478.71204625	93478.876229083	93479.02430325	93479.18941875	93479.354394291
93761.491202791	5.35	0	93762.991202791	5.347402833998785		93770.341190125	93766.838605625	93766.84120279101	93770.34120279101	93766.838612958	93770.341162291	3.5	843.94		3	3	0	1	87	240	1000	1050	93478.71204625	93478.876229083	93479.02430325	93479.18941875	93479.354394291
93761.491202791	5.35	1	93763.741202791	5.347402833998785		93770.341190125	93766.838605625	93766.84120279101	93770.34120279101	93766.838612958	93770.341162291	3.5	1057.01		3	3	0	1	87	240	1000	1050	93478.71204625	93478.876229083	93479.02430325	93479.18941875	93479.354394291
93761.491202791	5.35	0	93764.491202791	5.347402833998785		93770.341190125	93766.838605625	93766.84120279101	93770.34120279101	93766.838612958	93770.341162291	3.5	814.95		3	3	0	1	87	240	1000	1050	93478.71204625	93478.876229083	93479.02430325	93479.18941875	93479.354394291
93761.491202791	5.35	0	93765.241202791	5.347402833998785		93770.341190125	93766.838605625	93766.84120279101	93770.34120279101	93766.838612958	93770.341162291	3.5	840.74		3	3	0	1	87	240	1000	1050	93478.71204625	93478.876229083	93479.02430325	93479.18941875	93479.354394291
93761.491202791	5.35	0	93765.991202791	5.347402833998785		93770.341190125	93766.838605625	93766.84120279101	93770.34120279101	93766.838612958	93770.341162291	3.5	844.49		3	3	0	1	87	240	1000	1050	93478.71204625	93478.876229083	93479.02430325	93479.18941875	93479.354394291
93761.491202791	5.35	0	93766.741202791	5.347402833998785		93770.341190125	93766.838605625	93766.84120279101	93770.34120279101	93766.838612958	93770.341162291	3.5	844.37		3	3	0	1	87	240	1000	1050	93478.71204625	93478.876229083	93479.02430325	93479.18941875	93479.354394291
93770.349940125	5.35	0	93770.349940125	5.34986950000166		93782.199922125	93775.699809625	93775.699940125	93782.199940125	93775.699815375	93782.1998605	6.5	814.36		3	4	0	1	88	240	1000	1050	93478.71204625	93478.876229083	93479.02430325	93479.18941875	93479.354394291
93770.349940125	5.35	0	93771.099940125	5.34986950000166		93782.199922125	93775.699809625	93775.699940125	93782.199940125	93775.699815375	93782.1998605	6.5	832.26		3	4	0	1	88	240	1000	1050	93478.71204625	93478.876229083	93479.02430325	93479.18941875	93479.354394291
93770.349940125	5.35	0	93771.849940125	5.34986950000166		93782.199922125	93775.699809625	93775.699940125	93782.199940125	93775.699815375	93782.1998605	6.5	829.09		3	4	0	1	88	240	1000	1050	93478.71204625	93478.876229083	93479.02430325	93479.18941875	93479.354394291
93770.349940125	5.35	0	93772.599940125	5.34986950000166		93782.199922125	93775.699809625	93775.699940125	93782.199940125	93775.699815375	93782.1998605	6.5	831.71		3	4	0	1	88	240	1000	1050	93478.71204625	93478.876229083	93479.02430325	93479.18941875	93479.354394291
93770.349940125	5.35	1	93773.349940125	5.34986950000166		93782.199922125	93775.699809625	93775.699940125	93782.199940125	93775.699815375	93782.1998605	6.5	1037.74		3	4	0	1	88	240	1000	1050	93478.71204625	93478.876229083	93479.02430325	93479.18941875	93479.354394291
93770.349940125	5.35	0	93774.099940125	5.34986950000166		93782.199922125	93775.699809625	93775.699940125	93782.199940125	93775.699815375	93782.1998605	6.5	824.93		3	4	0	1	88	240	1000	1050	93478.71204625	93478.876229083	93479.02430325	93479.18941875	93479.354394291
93770.349940125	5.35	0	93774.849940125	5.34986950000166		93782.199922125	93775.699809625	93775.699940125	93782.199940125	93775.699815375	93782.1998605	6.5	835.15		3	4	0	1	88	240	1000	1050	93478.71204625	93478.876229083	93479.02430325	93479.18941875	93479.354394291
93770.349940125	5.35	0	93775.599940125	5.34986950000166		93782.199922125	93775.699809625	93775.699940125	93782.199940125	93775.699815375	93782.1998605	6.5	811.77		3	4	0	1	88	240	1000	1050	93478.71204625	93478.876229083	93479.02430325	93479.18941875	93479.354394291
93782.20617208301	5.35	0	93782.20617208301	5.322932791983476		93792.55615570801	93787.529104875	93787.55617208302	93792.55617208302	93787.529110708	93792.554193791	5.0	806.82		3	5	1	1	89	240	1000	1050	93478.71204625	93478.876229083	93479.02430325	93479.18941875	93479.354394291
93782.20617208301	5.35	0	93782.95617208301	5.322932791983476		93792.55615570801	93787.529104875	93787.55617208302	93792.55617208302	93787.529110708	93792.554193791	5.0	836.32		3	5	1	1	89	240	1000	1050	93478.71204625	93478.876229083	93479.02430325	93479.18941875	93479.354394291
93782.20617208301	5.35	0	93783.70617208301	5.322932791983476		93792.55615570801	93787.529104875	93787.55617208302	93792.55617208302	93787.529110708	93792.554193791	5.0	829.17		3	5	1	1	89	240	1000	1050	93478.71204625	93478.876229083	93479.02430325	93479.18941875	93479.354394291
93782.20617208301	5.35	0	93784.45617208301	5.322932791983476		93792.55615570801	93787.529104875	93787.55617208302	93792.55617208302	93787.529110708	93792.554193791	5.0	821.65		3	5	1	1	89	240	1000	1050	93478.71204625	93478.876229083	93479.02430325	93479.18941875	93479.354394291
93782.20617208301	5.35	0	93785.20617208301	5.322932791983476		93792.55615570801	93787.529104875	93787.55617208302	93792.55617208302	93787.529110708	93792.554193791	5.0	844.72		3	5	1	1	89	240	1000	1050	93478.71204625	93478.876229083	93479.02430325	93479.18941875	93479.354394291
93782.20617208301	5.35	1	93785.95617208301	5.322932791983476		93792.55615570801	93787.529104875	93787.55617208302	93792.55617208302	93787.529110708	93792.554193791	5.0	1042.17		3	5	1	1	89	240	1000	1050	93478.71204625	93478.876229083	93479.02430325	93479.18941875	93479.354394291
93782.20617208301	5.35	0	93786.70617208301	5.322932791983476		93792.55615570801	93787.529104875	93787.55617208302	93792.55617208302	93787.529110708	93792.554193791	5.0	859.47		3	5	1	1	89	240	1000	1050	93478.71204625	93478.876229083	93479.02430325	93479.18941875	93479.354394291
93782.20617208301	5.35	0	93787.45617208301	5.322932791983476		93792.55615570801	93787.529104875	93787.55617208302	93792.55617208302	93787.529110708	93792.554193791	5.0	835.78		3	5	1	1	89	240	1000	1050	93478.71204625	93478.876229083	93479.02430325	93479.18941875	93479.354394291
93792.56178070801	5.35	0	93792.56178070801	5.348467082993011		93805.411759291	93797.910247791	93797.91178070802	93805.41178070802	93797.910252416	93805.4105565	7.5	831.01		3	4	1	1	90	240	1000	1050	93478.71204625	93478.876229083	93479.02430325	93479.18941875	93479.354394291
93792.56178070801	5.35	0	93793.31178070801	5.348467082993011		93805.411759291	93797.910247791	93797.91178070802	93805.41178070802	93797.910252416	93805.4105565	7.5	813.53		3	4	1	1	90	240	1000	1050	93478.71204625	93478.876229083	93479.02430325	93479.18941875	93479.354394291
93792.56178070801	5.35	0	93794.06178070801	5.348467082993011		93805.411759291	93797.910247791	93797.91178070802	93805.41178070802	93797.910252416	93805.4105565	7.5	827.89		3	4	1	1	90	240	1000	1050	93478.71204625	93478.876229083	93479.02430325	93479.18941875	93479.354394291
93792.56178070801	5.35	0	93794.81178070801	5.348467082993011		93805.411759291	93797.910247791	93797.91178070802	93805.41178070802	93797.910252416	93805.4105565	7.5	808.41		3	4	1	1	90	240	1000	1050	93478.71204625	93478.876229083	93479.02430325	93479.18941875	93479.354394291
93792.56178070801	5.35	1	93795.56178070801	5.348467082993011		93805.411759291	93797.910247791	93797.91178070802	93805.41178070802	93797.910252416	93805.4105565	7.5	1030.06		3	4	1	1	90	240	1000	1050	93478.71204625	93478.876229083	93479.02430325	93479.18941875	93479.354394291
93792.56178070801	5.35	0	93796.31178070801	5.348467082993011		93805.411759291	93797.910247791	93797.91178070802	93805.41178070802	93797.910252416	93805.4105565	7.5	851.33		3	4	1	1	90	240	1000	1050	93478.71204625	93478.876229083	93479.02430325	93479.18941875	93479.354394291
93792.56178070801	5.35	0	93797.06178070801	5.348467082993011		93805.411759291	93797.910247791	93797.91178070802	93805.41178070802	93797.910252416	93805.4105565	7.5	869.48		3	4	1	1	90	240	1000	1050	93478.71204625	93478.876229083	93479.02430325	93479.18941875	93479.354394291
93792.56178070801	5.35	0	93797.81178070801	5.348467082993011		93805.411759291	93797.910247791	93797.91178070802	93805.41178070802	93797.910252416	93805.4105565	7.5	873.28		3	4	1	1	90	240	1000	1050	93478.71204625	93478.876229083	93479.02430325	93479.18941875	93479.354394291
93805.418321791	5.35	0	93805.418321791	5.348113708998426		93816.768300708	93810.7664355	93810.76832179101	93816.76832179101	93810.766440333	93816.767497041	6.0	867.07		3	4	0	1	91	240	1000	1050	93478.71204625	93478.876229083	93479.02430325	93479.18941875	93479.354394291
93805.418321791	5.35	0	93806.168321791	5.348113708998426		93816.768300708	93810.7664355	93810.76832179101	93816.76832179101	93810.766440333	93816.767497041	6.0	887.29		3	4	0	1	91	240	1000	1050	93478.71204625	93478.876229083	93479.02430325	93479.18941875	93479.354394291
93805.418321791	5.35	0	93806.918321791	5.348113708998426		93816.768300708	93810.7664355	93810.76832179101	93816.76832179101	93810.766440333	93816.767497041	6.0	888.3		3	4	0	1	91	240	1000	1050	93478.71204625	93478.876229083	93479.02430325	93479.18941875	93479.354394291
93805.418321791	5.35	0	93807.668321791	5.348113708998426		93816.768300708	93810.7664355	93810.76832179101	93816.76832179101	93810.766440333	93816.767497041	6.0	898.2		3	4	0	1	91	240	1000	1050	93478.71204625	93478.876229083	93479.02430325	93479.18941875	93479.354394291
93805.418321791	5.35	1	93808.418321791	5.348113708998426		93816.768300708	93810.7664355	93810.76832179101	93816.76832179101	93810.766440333	93816.767497041	6.0	1034.35		3	4	0	1	91	240	1000	1050	93478.71204625	93478.876229083	93479.02430325	93479.18941875	93479.354394291
93805.418321791	5.35	0	93809.168321791	5.348113708998426		93816.768300708	93810.7664355	93810.76832179101	93816.76832179101	93810.766440333	93816.767497041	6.0	886.0		3	4	0	1	91	240	1000	1050	93478.71204625	93478.876229083	93479.02430325	93479.18941875	93479.354394291
93805.418321791	5.35	0	93809.918321791	5.348113708998426		93816.768300708	93810.7664355	93810.76832179101	93816.76832179101	93810.766440333	93816.767497041	6.0	912.92		3	4	0	1	91	240	1000	1050	93478.71204625	93478.876229083	93479.02430325	93479.18941875	93479.354394291
93805.418321791	5.35	0	93810.668321791	5.348113708998426		93816.768300708	93810.7664355	93810.76832179101	93816.76832179101	93810.766440333	93816.767497041	6.0	910.17		3	4	0	1	91	240	1000	1050	93478.71204625	93478.876229083	93479.02430325	93479.18941875	93479.354394291
93816.774863166	5.35	0	93816.774863166	5.3494673339882866		93826.624845291	93822.1243305	93822.12486316601	93826.62486316601	93822.124337541	93826.624624958	4.5	910.48		3	3	0	1	92	240	1000	1050	93478.71204625	93478.876229083	93479.02430325	93479.18941875	93479.354394291
93816.774863166	5.35	0	93817.524863166	5.3494673339882866		93826.624845291	93822.1243305	93822.12486316601	93826.62486316601	93822.124337541	93826.624624958	4.5	899.85		3	3	0	1	92	240	1000	1050	93478.71204625	93478.876229083	93479.02430325	93479.18941875	93479.354394291
93816.774863166	5.35	0	93818.274863166	5.3494673339882866		93826.624845291	93822.1243305	93822.12486316601	93826.62486316601	93822.124337541	93826.624624958	4.5	910.69		3	3	0	1	92	240	1000	1050	93478.71204625	93478.876229083	93479.02430325	93479.18941875	93479.354394291
93816.774863166	5.35	1	93819.024863166	5.3494673339882866		93826.624845291	93822.1243305	93822.12486316601	93826.62486316601	93822.124337541	93826.624624958	4.5	1048.28		3	3	0	1	92	240	1000	1050	93478.71204625	93478.876229083	93479.02430325	93479.18941875	93479.354394291
93816.774863166	5.35	0	93819.774863166	5.3494673339882866		93826.624845291	93822.1243305	93822.12486316601	93826.62486316601	93822.124337541	93826.624624958	4.5	916.32		3	3	0	1	92	240	1000	1050	93478.71204625	93478.876229083	93479.02430325	93479.18941875	93479.354394291
93816.774863166	5.35	0	93820.524863166	5.3494673339882866		93826.624845291	93822.1243305	93822.12486316601	93826.62486316601	93822.124337541	93826.624624958	4.5	900.99		3	3	0	1	92	240	1000	1050	93478.71204625	93478.876229083	93479.02430325	93479.18941875	93479.354394291
93816.774863166	5.35	0	93821.274863166	5.3494673339882866		93826.624845291	93822.1243305	93822.12486316601	93826.62486316601	93822.124337541	93826.624624958	4.5	910.72		3	3	0	1	92	240	1000	1050	93478.71204625	93478.876229083	93479.02430325	93479.18941875	93479.354394291
93816.774863166	5.35	0	93822.024863166	5.3494673339882866		93826.624845291	93822.1243305	93822.12486316601	93826.62486316601	93822.124337541	93826.624624958	4.5	893.16		3	3	0	1	92	240	1000	1050	93478.71204625	93478.876229083	93479.02430325	93479.18941875	93479.354394291
93826.63453275	5.35	0	93826.63453275	5.347395499993581		93836.484513958	93831.98192825	93831.98453275001	93836.48453275001	93831.981934166	93836.483737458	4.5	885.33		3	2	0	1	93	240	1000	1050	93478.71204625	93478.876229083	93479.02430325	93479.18941875	93479.354394291
93826.63453275	5.35	0	93827.38453275	5.347395499993581		93836.484513958	93831.98192825	93831.98453275001	93836.48453275001	93831.981934166	93836.483737458	4.5	896.08		3	2	0	1	93	240	1000	1050	93478.71204625	93478.876229083	93479.02430325	93479.18941875	93479.354394291
93826.63453275	5.35	1	93828.13453275	5.347395499993581		93836.484513958	93831.98192825	93831.98453275001	93836.48453275001	93831.981934166	93836.483737458	4.5	1029.77		3	2	0	1	93	240	1000	1050	93478.71204625	93478.876229083	93479.02430325	93479.18941875	93479.354394291
93826.63453275	5.35	0	93828.88453275	5.347395499993581		93836.484513958	93831.98192825	93831.98453275001	93836.48453275001	93831.981934166	93836.483737458	4.5	905.76		3	2	0	1	93	240	1000	1050	93478.71204625	93478.876229083	93479.02430325	93479.18941875	93479.354394291
93826.63453275	5.35	0	93829.63453275	5.347395499993581		93836.484513958	93831.98192825	93831.98453275001	93836.48453275001	93831.981934166	93836.483737458	4.5	938.04		3	2	0	1	93	240	1000	1050	93478.71204625	93478.876229083	93479.02430325	93479.18941875	93479.354394291
93826.63453275	5.35	0	93830.38453275	5.347395499993581		93836.484513958	93831.98192825	93831.98453275001	93836.48453275001	93831.981934166	93836.483737458	4.5	894.79		3	2	0	1	93	240	1000	1050	93478.71204625	93478.876229083	93479.02430325	93479.18941875	93479.354394291
93826.63453275	5.35	0	93831.13453275	5.347395499993581		93836.484513958	93831.98192825	93831.98453275001	93836.48453275001	93831.981934166	93836.483737458	4.5	918.68		3	2	0	1	93	240	1000	1050	93478.71204625	93478.876229083	93479.02430325	93479.18941875	93479.354394291
93826.63453275	5.35	0	93831.88453275	5.347395499993581		93836.484513958	93831.98192825	93831.98453275001	93836.48453275001	93831.981934166	93836.483737458	4.5	894.64		3	2	0	1	93	240	1000	1050	93478.71204625	93478.876229083	93479.02430325	93479.18941875	93479.354394291
93836.49076391601	5.35	0	93836.49076391601	5.34971762499481		93848.840739291	93841.840481541	93841.84076391601	93848.84076391601	93841.840486041	93848.840516791	7.0	910.78		3	6	1	1	94	240	1000	1050	93478.71204625	93478.876229083	93479.02430325	93479.18941875	93479.354394291
93836.49076391601	5.35	0	93837.24076391601	5.34971762499481		93848.840739291	93841.840481541	93841.84076391601	93848.84076391601	93841.840486041	93848.840516791	7.0	912.02		3	6	1	1	94	240	1000	1050	93478.71204625	93478.876229083	93479.02430325	93479.18941875	93479.354394291
93836.49076391601	5.35	0	93837.99076391601	5.34971762499481		93848.840739291	93841.840481541	93841.84076391601	93848.84076391601	93841.840486041	93848.840516791	7.0	934.65		3	6	1	1	94	240	1000	1050	93478.71204625	93478.876229083	93479.02430325	93479.18941875	93479.354394291
93836.49076391601	5.35	0	93838.74076391601	5.34971762499481		93848.840739291	93841.840481541	93841.84076391601	93848.84076391601	93841.840486041	93848.840516791	7.0	947.63		3	6	1	1	94	240	1000	1050	93478.71204625	93478.876229083	93479.02430325	93479.18941875	93479.354394291
93836.49076391601	5.35	0	93839.49076391601	5.34971762499481		93848.840739291	93841.840481541	93841.84076391601	93848.84076391601	93841.840486041	93848.840516791	7.0	946.71		3	6	1	1	94	240	1000	1050	93478.71204625	93478.876229083	93479.02430325	93479.18941875	93479.354394291
93836.49076391601	5.35	0	93840.24076391601	5.34971762499481		93848.840739291	93841.840481541	93841.84076391601	93848.84076391601	93841.840486041	93848.840516791	7.0	935.5		3	6	1	1	94	240	1000	1050	93478.71204625	93478.876229083	93479.02430325	93479.18941875	93479.354394291
93836.49076391601	5.35	1	93840.99076391601	5.34971762499481		93848.840739291	93841.840481541	93841.84076391601	93848.84076391601	93841.840486041	93848.840516791	7.0	1022.43		3	6	1	1	94	240	1000	1050	93478.71204625	93478.876229083	93479.02430325	93479.18941875	93479.354394291
93836.49076391601	5.35	0	93841.74076391601	5.34971762499481		93848.840739291	93841.840481541	93841.84076391601	93848.84076391601	93841.840486041	93848.840516791	7.0	948.14		3	6	1	1	94	240	1000	1050	93478.71204625	93478.876229083	93479.02430325	93479.18941875	93479.354394291
93848.84761429101	5.35	0	93848.84761429101	5.348860499987495		93860.697588875	93854.196474791	93854.19761429101	93860.69761429101	93854.196484125	93860.695408	6.5	938.64		3	5	1	1	95	240	1000	1050	93478.71204625	93478.876229083	93479.02430325	93479.18941875	93479.354394291
93848.84761429101	5.35	0	93849.59761429101	5.348860499987495		93860.697588875	93854.196474791	93854.19761429101	93860.69761429101	93854.196484125	93860.695408	6.5	932.8		3	5	1	1	95	240	1000	1050	93478.71204625	93478.876229083	93479.02430325	93479.18941875	93479.354394291
93848.84761429101	5.35	0	93850.34761429101	5.348860499987495		93860.697588875	93854.196474791	93854.19761429101	93860.69761429101	93854.196484125	93860.695408	6.5	920.24		3	5	1	1	95	240	1000	1050	93478.71204625	93478.876229083	93479.02430325	93479.18941875	93479.354394291
93848.84761429101	5.35	0	93851.09761429101	5.348860499987495		93860.697588875	93854.196474791	93854.19761429101	93860.69761429101	93854.196484125	93860.695408	6.5	949.12		3	5	1	1	95	240	1000	1050	93478.71204625	93478.876229083	93479.02430325	93479.18941875	93479.354394291
93848.84761429101	5.35	0	93851.84761429101	5.348860499987495		93860.697588875	93854.196474791	93854.19761429101	93860.69761429101	93854.196484125	93860.695408	6.5	953.9		3	5	1	1	95	240	1000	1050	93478.71204625	93478.876229083	93479.02430325	93479.18941875	93479.354394291
93848.84761429101	5.35	1	93852.59761429101	5.348860499987495		93860.697588875	93854.196474791	93854.19761429101	93860.69761429101	93854.196484125	93860.695408	6.5	1046.17		3	5	1	1	95	240	1000	1050	93478.71204625	93478.876229083	93479.02430325	93479.18941875	93479.354394291
93848.84761429101	5.35	0	93853.34761429101	5.348860499987495		93860.697588875	93854.196474791	93854.19761429101	93860.69761429101	93854.196484125	93860.695408	6.5	972.16		3	5	1	1	95	240	1000	1050	93478.71204625	93478.876229083	93479.02430325	93479.18941875	93479.354394291
93848.84761429101	5.35	0	93854.09761429101	5.348860499987495		93860.697588875	93854.196474791	93854.19761429101	93860.69761429101	93854.196484125	93860.695408	6.5	989.48		3	5	1	1	95	240	1000	1050	93478.71204625	93478.876229083	93479.02430325	93479.18941875	93479.354394291
93860.704151375	5.35	0	93860.704151375	5.348767582996516		93873.554123	93866.052918958	93866.054151375	93873.554151375	93866.052924083	93873.551669791	7.5	980.24		3	6	1	1	96	240	1000	1050	93478.71204625	93478.876229083	93479.02430325	93479.18941875	93479.354394291
93860.704151375	5.35	0	93861.454151375	5.348767582996516		93873.554123	93866.052918958	93866.054151375	93873.554151375	93866.052924083	93873.551669791	7.5	990.51		3	6	1	1	96	240	1000	1050	93478.71204625	93478.876229083	93479.02430325	93479.18941875	93479.354394291
93860.704151375	5.35	0	93862.204151375	5.348767582996516		93873.554123	93866.052918958	93866.054151375	93873.554151375	93866.052924083	93873.551669791	7.5	971.75		3	6	1	1	96	240	1000	1050	93478.71204625	93478.876229083	93479.02430325	93479.18941875	93479.354394291
93860.704151375	5.35	0	93862.954151375	5.348767582996516		93873.554123	93866.052918958	93866.054151375	93873.554151375	93866.052924083	93873.551669791	7.5	974.85		3	6	1	1	96	240	1000	1050	93478.71204625	93478.876229083	93479.02430325	93479.18941875	93479.354394291
93860.704151375	5.35	0	93863.704151375	5.348767582996516		93873.554123	93866.052918958	93866.054151375	93873.554151375	93866.052924083	93873.551669791	7.5	975.71		3	6	1	1	96	240	1000	1050	93478.71204625	93478.876229083	93479.02430325	93479.18941875	93479.354394291
93860.704151375	5.35	0	93864.454151375	5.348767582996516		93873.554123	93866.052918958	93866.054151375	93873.554151375	93866.052924083	93873.551669791	7.5	975.01		3	6	1	1	96	240	1000	1050	93478.71204625	93478.876229083	93479.02430325	93479.18941875	93479.354394291
93860.704151375	5.35	1	93865.204151375	5.348767582996516		93873.554123	93866.052918958	93866.054151375	93873.554151375	93866.052924083	93873.551669791	7.5	1056.31		3	6	1	1	96	240	1000	1050	93478.71204625	93478.876229083	93479.02430325	93479.18941875	93479.354394291
93860.704151375	5.35	0	93865.954151375	5.348767582996516		93873.554123	93866.052918958	93866.054151375	93873.554151375	93866.052924083	93873.551669791	7.5	967.03		3	6	1	1	96	240	1000	1050	93478.71204625	93478.876229083	93479.02430325	93479.18941875	93479.354394291
93873.55974800001	5.35	0	93873.55974800001	5.349316707986873		93885.909722875	93878.909064708	93878.90974800002	93885.90974800002	93878.909068875	93885.909400083	7.0	971.09		3	5	1	1	97	240	1000	1050	93478.71204625	93478.876229083	93479.02430325	93479.18941875	93479.354394291
93873.55974800001	5.35	0	93874.30974800001	5.349316707986873		93885.909722875	93878.909064708	93878.90974800002	93885.90974800002	93878.909068875	93885.909400083	7.0	978.93		3	5	1	1	97	240	1000	1050	93478.71204625	93478.876229083	93479.02430325	93479.18941875	93479.354394291
93873.55974800001	5.35	0	93875.05974800001	5.349316707986873		93885.909722875	93878.909064708	93878.90974800002	93885.90974800002	93878.909068875	93885.909400083	7.0	966.26		3	5	1	1	97	240	1000	1050	93478.71204625	93478.876229083	93479.02430325	93479.18941875	93479.354394291
93873.55974800001	5.35	0	93875.80974800001	5.349316707986873		93885.909722875	93878.909064708	93878.90974800002	93885.90974800002	93878.909068875	93885.909400083	7.0	952.38		3	5	1	1	97	240	1000	1050	93478.71204625	93478.876229083	93479.02430325	93479.18941875	93479.354394291
93873.55974800001	5.35	0	93876.55974800001	5.349316707986873		93885.909722875	93878.909064708	93878.90974800002	93885.90974800002	93878.909068875	93885.909400083	7.0	952.51		3	5	1	1	97	240	1000	1050	93478.71204625	93478.876229083	93479.02430325	93479.18941875	93479.354394291
93873.55974800001	5.35	1	93877.30974800001	5.349316707986873		93885.909722875	93878.909064708	93878.90974800002	93885.90974800002	93878.909068875	93885.909400083	7.0	1050.34		3	5	1	1	97	240	1000	1050	93478.71204625	93478.876229083	93479.02430325	93479.18941875	93479.354394291
93873.55974800001	5.35	0	93878.05974800001	5.349316707986873		93885.909722875	93878.909064708	93878.90974800002	93885.90974800002	93878.909068875	93885.909400083	7.0	952.3		3	5	1	1	97	240	1000	1050	93478.71204625	93478.876229083	93479.02430325	93479.18941875	93479.354394291
93873.55974800001	5.35	0	93878.80974800001	5.349316707986873		93885.909722875	93878.909064708	93878.90974800002	93885.90974800002	93878.909068875	93885.909400083	7.0	940.56		3	5	1	1	97	240	1000	1050	93478.71204625	93478.876229083	93479.02430325	93479.18941875	93479.354394291
93885.916285333	5.35	0	93885.916285333	5.348266957997112		93897.26626175	93891.264552291	93891.26628533301	93897.26628533301	93891.264556958	93897.265941375	6.0	961.24		3	6	1	1	98	240	1000	1050	93478.71204625	93478.876229083	93479.02430325	93479.18941875	93479.354394291
93885.916285333	5.35	0	93886.666285333	5.348266957997112		93897.26626175	93891.264552291	93891.26628533301	93897.26628533301	93891.264556958	93897.265941375	6.0	937.97		3	6	1	1	98	240	1000	1050	93478.71204625	93478.876229083	93479.02430325	93479.18941875	93479.354394291
93885.916285333	5.35	0	93887.416285333	5.348266957997112		93897.26626175	93891.264552291	93891.26628533301	93897.26628533301	93891.264556958	93897.265941375	6.0	929.13		3	6	1	1	98	240	1000	1050	93478.71204625	93478.876229083	93479.02430325	93479.18941875	93479.354394291
93885.916285333	5.35	0	93888.166285333	5.348266957997112		93897.26626175	93891.264552291	93891.26628533301	93897.26628533301	93891.264556958	93897.265941375	6.0	950.43		3	6	1	1	98	240	1000	1050	93478.71204625	93478.876229083	93479.02430325	93479.18941875	93479.354394291
93885.916285333	5.35	0	93888.916285333	5.348266957997112		93897.26626175	93891.264552291	93891.26628533301	93897.26628533301	93891.264556958	93897.265941375	6.0	969.22		3	6	1	1	98	240	1000	1050	93478.71204625	93478.876229083	93479.02430325	93479.18941875	93479.354394291
93885.916285333	5.35	0	93889.666285333	5.348266957997112		93897.26626175	93891.264552291	93891.26628533301	93897.26628533301	93891.264556958	93897.265941375	6.0	963.53		3	6	1	1	98	240	1000	1050	93478.71204625	93478.876229083	93479.02430325	93479.18941875	93479.354394291
93885.916285333	5.35	1	93890.416285333	5.348266957997112		93897.26626175	93891.264552291	93891.26628533301	93897.26628533301	93891.264556958	93897.265941375	6.0	1040.6		3	6	1	1	98	240	1000	1050	93478.71204625	93478.876229083	93479.02430325	93479.18941875	93479.354394291
93885.916285333	5.35	0	93891.166285333	5.348266957997112		93897.26626175	93891.264552291	93891.26628533301	93897.26628533301	93891.264556958	93897.265941375	6.0	937.59		3	6	1	1	98	240	1000	1050	93478.71204625	93478.876229083	93479.02430325	93479.18941875	93479.354394291
93897.27313675001	5.35	0	93897.27313675001	5.349979999984498		93907.623115333	93902.62311675	93902.62313675001	93907.62313675001	93902.623121625	93907.622403375	5.0	958.83		3	6	1	1	99	240	1000	1050	93478.71204625	93478.876229083	93479.02430325	93479.18941875	93479.354394291
93897.27313675001	5.35	0	93898.02313675001	5.349979999984498		93907.623115333	93902.62311675	93902.62313675001	93907.62313675001	93902.623121625	93907.622403375	5.0	949.03		3	6	1	1	99	240	1000	1050	93478.71204625	93478.876229083	93479.02430325	93479.18941875	93479.354394291
93897.27313675001	5.35	0	93898.77313675001	5.349979999984498		93907.623115333	93902.62311675	93902.62313675001	93907.62313675001	93902.623121625	93907.622403375	5.0	924.84		3	6	1	1	99	240	1000	1050	93478.71204625	93478.876229083	93479.02430325	93479.18941875	93479.354394291
93897.27313675001	5.35	0	93899.52313675001	5.349979999984498		93907.623115333	93902.62311675	93902.62313675001	93907.62313675001	93902.623121625	93907.622403375	5.0	940.75		3	6	1	1	99	240	1000	1050	93478.71204625	93478.876229083	93479.02430325	93479.18941875	93479.354394291
93897.27313675001	5.35	0	93900.27313675001	5.349979999984498		93907.623115333	93902.62311675	93902.62313675001	93907.62313675001	93902.623121625	93907.622403375	5.0	940.77		3	6	1	1	99	240	1000	1050	93478.71204625	93478.876229083	93479.02430325	93479.18941875	93479.354394291
93897.27313675001	5.35	0	93901.02313675001	5.349979999984498		93907.623115333	93902.62311675	93902.62313675001	93907.62313675001	93902.623121625	93907.622403375	5.0	936.8		3	6	1	1	99	240	1000	1050	93478.71204625	93478.876229083	93479.02430325	93479.18941875	93479.354394291
93897.27313675001	5.35	1	93901.77313675001	5.349979999984498		93907.623115333	93902.62311675	93902.62313675001	93907.62313675001	93902.623121625	93907.622403375	5.0	1034.5		3	6	1	1	99	240	1000	1050	93478.71204625	93478.876229083	93479.02430325	93479.18941875	93479.354394291
93897.27313675001	5.35	0	93902.52313675001	5.349979999984498		93907.623115333	93902.62311675	93902.62313675001	93907.62313675001	93902.623121625	93907.622403375	5.0	971.71		3	6	1	1	99	240	1000	1050	93478.71204625	93478.876229083	93479.02430325	93479.18941875	93479.354394291
93907.628740333	5.35	0	93907.628740333	5.349240166993695		93918.478718416	93912.9779805	93912.97874033301	93918.47874033301	93912.977985375	93918.476962916	5.5	978.99		3	4	1	1	100	240	1000	1050	93478.71204625	93478.876229083	93479.02430325	93479.18941875	93479.354394291
93907.628740333	5.35	0	93908.378740333	5.349240166993695		93918.478718416	93912.9779805	93912.97874033301	93918.47874033301	93912.977985375	93918.476962916	5.5	951.93		3	4	1	1	100	240	1000	1050	93478.71204625	93478.876229083	93479.02430325	93479.18941875	93479.354394291
93907.628740333	5.35	0	93909.128740333	5.349240166993695		93918.478718416	93912.9779805	93912.97874033301	93918.47874033301	93912.977985375	93918.476962916	5.5	966.67		3	4	1	1	100	240	1000	1050	93478.71204625	93478.876229083	93479.02430325	93479.18941875	93479.354394291
93907.628740333	5.35	0	93909.878740333	5.349240166993695		93918.478718416	93912.9779805	93912.97874033301	93918.47874033301	93912.977985375	93918.476962916	5.5	939.51		3	4	1	1	100	240	1000	1050	93478.71204625	93478.876229083	93479.02430325	93479.18941875	93479.354394291
93907.628740333	5.35	1	93910.628740333	5.349240166993695		93918.478718416	93912.9779805	93912.97874033301	93918.47874033301	93912.977985375	93918.476962916	5.5	1072.64		3	4	1	1	100	240	1000	1050	93478.71204625	93478.876229083	93479.02430325	93479.18941875	93479.354394291
93907.628740333	5.35	0	93911.378740333	5.349240166993695		93918.478718416	93912.9779805	93912.97874033301	93918.47874033301	93912.977985375	93918.476962916	5.5	947.43		3	4	1	1	100	240	1000	1050	93478.71204625	93478.876229083	93479.02430325	93479.18941875	93479.354394291
93907.628740333	5.35	0	93912.128740333	5.349240166993695		93918.478718416	93912.9779805	93912.97874033301	93918.47874033301	93912.977985375	93918.476962916	5.5	946.66		3	4	1	1	100	240	1000	1050	93478.71204625	93478.876229083	93479.02430325	93479.18941875	93479.354394291
93907.628740333	5.35	0	93912.878740333	5.349240166993695		93918.478718416	93912.9779805	93912.97874033301	93918.47874033301	93912.977985375	93918.476962916	5.5	942.88		3	4	1	1	100	240	1000	1050	93478.71204625	93478.876229083	93479.02430325	93479.18941875	93479.354394291
93918.48434341601	5.35	0	93918.48434341601	5.348479249980301		93926.834325833	93923.832822666	93923.83434341602	93926.83434341602	93923.832827708	93926.833674708	3.0	938.06		3	2	0	1	101	240	1000	1050	93478.71204625	93478.876229083	93479.02430325	93479.18941875	93479.354394291
93918.48434341601	5.35	0	93919.23434341601	5.348479249980301		93926.834325833	93923.832822666	93923.83434341602	93926.83434341602	93923.832827708	93926.833674708	3.0	940.23		3	2	0	1	101	240	1000	1050	93478.71204625	93478.876229083	93479.02430325	93479.18941875	93479.354394291
93918.48434341601	5.35	1	93919.98434341601	5.348479249980301		93926.834325833	93923.832822666	93923.83434341602	93926.83434341602	93923.832827708	93926.833674708	3.0	1079.37		3	2	0	1	101	240	1000	1050	93478.71204625	93478.876229083	93479.02430325	93479.18941875	93479.354394291
93918.48434341601	5.35	0	93920.73434341601	5.348479249980301		93926.834325833	93923.832822666	93923.83434341602	93926.83434341602	93923.832827708	93926.833674708	3.0	942.63		3	2	0	1	101	240	1000	1050	93478.71204625	93478.876229083	93479.02430325	93479.18941875	93479.354394291
93918.48434341601	5.35	0	93921.48434341601	5.348479249980301		93926.834325833	93923.832822666	93923.83434341602	93926.83434341602	93923.832827708	93926.833674708	3.0	950.36		3	2	0	1	101	240	1000	1050	93478.71204625	93478.876229083	93479.02430325	93479.18941875	93479.354394291
93918.48434341601	5.35	0	93922.23434341601	5.348479249980301		93926.834325833	93923.832822666	93923.83434341602	93926.83434341602	93923.832827708	93926.833674708	3.0	935.45		3	2	0	1	101	240	1000	1050	93478.71204625	93478.876229083	93479.02430325	93479.18941875	93479.354394291
93918.48434341601	5.35	0	93922.98434341601	5.348479249980301		93926.834325833	93923.832822666	93923.83434341602	93926.83434341602	93923.832827708	93926.833674708	3.0	946.64		3	2	0	1	101	240	1000	1050	93478.71204625	93478.876229083	93479.02430325	93479.18941875	93479.354394291
93918.48434341601	5.35	0	93923.73434341601	5.348479249980301		93926.834325833	93923.832822666	93923.83434341602	93926.83434341602	93923.832827708	93926.833674708	3.0	966.21		3	2	0	1	101	240	1000	1050	93478.71204625	93478.876229083	93479.02430325	93479.18941875	93479.354394291
93926.84088833301	5.35	0	93926.84088833301	5.349528582984931		93935.190870416	93932.190416916	93932.19088833302	93935.19088833302	93932.190420791	93935.1904875	3.0	988.94		3	3	0	1	102	240	1000	1050	93478.71204625	93478.876229083	93479.02430325	93479.18941875	93479.354394291
93926.84088833301	5.35	0	93927.59088833301	5.349528582984931		93935.190870416	93932.190416916	93932.19088833302	93935.19088833302	93932.190420791	93935.1904875	3.0	973.62		3	3	0	1	102	240	1000	1050	93478.71204625	93478.876229083	93479.02430325	93479.18941875	93479.354394291
93926.84088833301	5.35	0	93928.34088833301	5.349528582984931		93935.190870416	93932.190416916	93932.19088833302	93935.19088833302	93932.190420791	93935.1904875	3.0	968.32		3	3	0	1	102	240	1000	1050	93478.71204625	93478.876229083	93479.02430325	93479.18941875	93479.354394291
93926.84088833301	5.35	1	93929.09088833301	5.349528582984931		93935.190870416	93932.190416916	93932.19088833302	93935.19088833302	93932.190420791	93935.1904875	3.0	1041.07		3	3	0	1	102	240	1000	1050	93478.71204625	93478.876229083	93479.02430325	93479.18941875	93479.354394291
93926.84088833301	5.35	0	93929.84088833301	5.349528582984931		93935.190870416	93932.190416916	93932.19088833302	93935.19088833302	93932.190420791	93935.1904875	3.0	972.44		3	3	0	1	102	240	1000	1050	93478.71204625	93478.876229083	93479.02430325	93479.18941875	93479.354394291
93926.84088833301	5.35	0	93930.59088833301	5.349528582984931		93935.190870416	93932.190416916	93932.19088833302	93935.19088833302	93932.190420791	93935.1904875	3.0	949.16		3	3	0	1	102	240	1000	1050	93478.71204625	93478.876229083	93479.02430325	93479.18941875	93479.354394291
93926.84088833301	5.35	0	93931.34088833301	5.349528582984931		93935.190870416	93932.190416916	93932.19088833302	93935.19088833302	93932.190420791	93935.1904875	3.0	954.05		3	3	0	1	102	240	1000	1050	93478.71204625	93478.876229083	93479.02430325	93479.18941875	93479.354394291
93926.84088833301	5.35	0	93932.09088833301	5.349528582984931		93935.190870416	93932.190416916	93932.19088833302	93935.19088833302	93932.190420791	93935.1904875	3.0	964.63		3	3	0	1	102	240	1000	1050	93478.71204625	93478.876229083	93479.02430325	93479.18941875	93479.354394291
93935.197432916	5.35	0	93935.197432916	5.349029417004203		93944.547412125	93940.546462333	93940.547432916	93944.547432916	93940.54646725	93944.546093791	4.0	959.0		3	3	0	1	103	240	1000	1050	93478.71204625	93478.876229083	93479.02430325	93479.18941875	93479.354394291
93935.197432916	5.35	0	93935.947432916	5.349029417004203		93944.547412125	93940.546462333	93940.547432916	93944.547432916	93940.54646725	93944.546093791	4.0	960.59		3	3	0	1	103	240	1000	1050	93478.71204625	93478.876229083	93479.02430325	93479.18941875	93479.354394291
93935.197432916	5.35	0	93936.697432916	5.349029417004203		93944.547412125	93940.546462333	93940.547432916	93944.547432916	93940.54646725	93944.546093791	4.0	976.16		3	3	0	1	103	240	1000	1050	93478.71204625	93478.876229083	93479.02430325	93479.18941875	93479.354394291
93935.197432916	5.35	1	93937.447432916	5.349029417004203		93944.547412125	93940.546462333	93940.547432916	93944.547432916	93940.54646725	93944.546093791	4.0	1060.75		3	3	0	1	103	240	1000	1050	93478.71204625	93478.876229083	93479.02430325	93479.18941875	93479.354394291
93935.197432916	5.35	0	93938.197432916	5.349029417004203		93944.547412125	93940.546462333	93940.547432916	93944.547432916	93940.54646725	93944.546093791	4.0	994.51		3	3	0	1	103	240	1000	1050	93478.71204625	93478.876229083	93479.02430325	93479.18941875	93479.354394291
93935.197432916	5.35	0	93938.947432916	5.349029417004203		93944.547412125	93940.546462333	93940.547432916	93944.547432916	93940.54646725	93944.546093791	4.0	974.52		3	3	0	1	103	240	1000	1050	93478.71204625	93478.876229083	93479.02430325	93479.18941875	93479.354394291
93935.197432916	5.35	0	93939.697432916	5.349029417004203		93944.547412125	93940.546462333	93940.547432916	93944.547432916	93940.54646725	93944.546093791	4.0	955.97		3	3	0	1	103	240	1000	1050	93478.71204625	93478.876229083	93479.02430325	93479.18941875	93479.354394291
93935.197432916	5.35	0	93940.447432916	5.349029417004203		93944.547412125	93940.546462333	93940.547432916	93944.547432916	93940.54646725	93944.546093791	4.0	1007.93		3	3	0	1	103	240	1000	1050	93478.71204625	93478.876229083	93479.02430325	93479.18941875	93479.354394291
93944.553037125	5.35	0	93944.553037125	5.349360415988485		93954.403015208	93949.902397541	93949.90303712501	93954.40303712501	93949.902401958	93954.402319625	4.5	998.61		3	4	0	1	104	240	1000	1050	93478.71204625	93478.876229083	93479.02430325	93479.18941875	93479.354394291
93944.553037125	5.35	0	93945.303037125	5.349360415988485		93954.403015208	93949.902397541	93949.90303712501	93954.40303712501	93949.902401958	93954.402319625	4.5	996.08		3	4	0	1	104	240	1000	1050	93478.71204625	93478.876229083	93479.02430325	93479.18941875	93479.354394291
93944.553037125	5.35	0	93946.053037125	5.349360415988485		93954.403015208	93949.902397541	93949.90303712501	93954.40303712501	93949.902401958	93954.402319625	4.5	999.96		3	4	0	1	104	240	1000	1050	93478.71204625	93478.876229083	93479.02430325	93479.18941875	93479.354394291
93944.553037125	5.35	0	93946.803037125	5.349360415988485		93954.403015208	93949.902397541	93949.90303712501	93954.40303712501	93949.902401958	93954.402319625	4.5	983.17		3	4	0	1	104	240	1000	1050	93478.71204625	93478.876229083	93479.02430325	93479.18941875	93479.354394291
93944.553037125	5.35	1	93947.553037125	5.349360415988485		93954.403015208	93949.902397541	93949.90303712501	93954.40303712501	93949.902401958	93954.402319625	4.5	1059.09		3	4	0	1	104	240	1000	1050	93478.71204625	93478.876229083	93479.02430325	93479.18941875	93479.354394291
93944.553037125	5.35	0	93948.303037125	5.349360415988485		93954.403015208	93949.902397541	93949.90303712501	93954.40303712501	93949.902401958	93954.402319625	4.5	979.67		3	4	0	1	104	240	1000	1050	93478.71204625	93478.876229083	93479.02430325	93479.18941875	93479.354394291
93944.553037125	5.35	0	93949.053037125	5.349360415988485		93954.403015208	93949.902397541	93949.90303712501	93954.40303712501	93949.902401958	93954.402319625	4.5	968.04		3	4	0	1	104	240	1000	1050	93478.71204625	93478.876229083	93479.02430325	93479.18941875	93479.354394291
93944.553037125	5.35	0	93949.803037125	5.349360415988485		93954.403015208	93949.902397541	93949.90303712501	93954.40303712501	93949.902401958	93954.402319625	4.5	985.54		3	4	0	1	104	240	1000	1050	93478.71204625	93478.876229083	93479.02430325	93479.18941875	93479.354394291
93954.41082770801	5.35	0	93954.41082770801	5.348015666997526		93966.760800041	93959.758843375	93959.76082770801	93966.76082770801	93959.758848333	93966.7598445	7.0	989.05		3	3	0	1	105	240	1000	1050	93478.71204625	93478.876229083	93479.02430325	93479.18941875	93479.354394291
93954.41082770801	5.35	0	93955.16082770801	5.348015666997526		93966.760800041	93959.758843375	93959.76082770801	93966.76082770801	93959.758848333	93966.7598445	7.0	956.13		3	3	0	1	105	240	1000	1050	93478.71204625	93478.876229083	93479.02430325	93479.18941875	93479.354394291
93954.41082770801	5.35	0	93955.91082770801	5.348015666997526		93966.760800041	93959.758843375	93959.76082770801	93966.76082770801	93959.758848333	93966.7598445	7.0	986.94		3	3	0	1	105	240	1000	1050	93478.71204625	93478.876229083	93479.02430325	93479.18941875	93479.354394291
93954.41082770801	5.35	1	93956.66082770801	5.348015666997526		93966.760800041	93959.758843375	93959.76082770801	93966.76082770801	93959.758848333	93966.7598445	7.0	1046.03		3	3	0	1	105	240	1000	1050	93478.71204625	93478.876229083	93479.02430325	93479.18941875	93479.354394291
93954.41082770801	5.35	0	93957.41082770801	5.348015666997526		93966.760800041	93959.758843375	93959.76082770801	93966.76082770801	93959.758848333	93966.7598445	7.0	1004.14		3	3	0	1	105	240	1000	1050	93478.71204625	93478.876229083	93479.02430325	93479.18941875	93479.354394291
