onset	duration	trial_type	onset_tone	duration_imprecise	response_time_imprecise	offset_trial	offset_sound_imprecise	onset_iti	offset_iti	onset_iti_imprecise	offset_iti_imprecise	ITI	frequency	key_pressed	confidence	correct	dpos	rule	runs	trial_no	tau_std	lim_std	lim_dev	trigger_time_1	trigger_time_2	trigger_time_3	trigger_time_4	trigger_time_5
69890.24122962501	5.35	0	69890.24122962501	5.342368915982661	0.38177787500899285	69903.591208	69895.583598541	69895.59122962502	69903.59122962502	69895.583679916	69903.584065791	8.0	984.02	l	60.0	0	4	0	2	120	160	1000	1050	69889.498007333	69889.6780395	69889.84304925	69890.038216916	69890.233318708
69890.24122962501	5.35	0	69890.99122962501	5.342368915982661	0.38177787500899285	69903.591208	69895.583598541	69895.59122962502	69903.59122962502	69895.583679916	69903.584065791	8.0	980.98	l	60.0	0	4	0	2	120	160	1000	1050	69889.498007333	69889.6780395	69889.84304925	69890.038216916	69890.233318708
69890.24122962501	5.35	0	69891.74122962501	5.342368915982661	0.38177787500899285	69903.591208	69895.583598541	69895.59122962502	69903.59122962502	69895.583679916	69903.584065791	8.0	954.67	l	60.0	0	4	0	2	120	160	1000	1050	69889.498007333	69889.6780395	69889.84304925	69890.038216916	69890.233318708
69890.24122962501	5.35	0	69892.49122962501	5.342368915982661	0.38177787500899285	69903.591208	69895.583598541	69895.59122962502	69903.59122962502	69895.583679916	69903.584065791	8.0	967.52	l	60.0	0	4	0	2	120	160	1000	1050	69889.498007333	69889.6780395	69889.84304925	69890.038216916	69890.233318708
69890.24122962501	5.35	1	69893.24122962501	5.342368915982661	0.38177787500899285	69903.591208	69895.583598541	69895.59122962502	69903.59122962502	69895.583679916	69903.584065791	8.0	1077.69	l	60.0	0	4	0	2	120	160	1000	1050	69889.498007333	69889.6780395	69889.84304925	69890.038216916	69890.233318708
69890.24122962501	5.35	0	69893.99122962501	5.342368915982661	0.38177787500899285	69903.591208	69895.583598541	69895.59122962502	69903.59122962502	69895.583679916	69903.584065791	8.0	975.96	l	60.0	0	4	0	2	120	160	1000	1050	69889.498007333	69889.6780395	69889.84304925	69890.038216916	69890.233318708
69890.24122962501	5.35	0	69894.74122962501	5.342368915982661	0.38177787500899285	69903.591208	69895.583598541	69895.59122962502	69903.59122962502	69895.583679916	69903.584065791	8.0	957.75	l	60.0	0	4	0	2	120	160	1000	1050	69889.498007333	69889.6780395	69889.84304925	69890.038216916	69890.233318708
69890.24122962501	5.35	0	69895.49122962501	5.342368915982661	0.38177787500899285	69903.591208	69895.583598541	69895.59122962502	69903.59122962502	69895.583679916	69903.584065791	8.0	988.44	l	60.0	0	4	0	2	120	160	1000	1050	69889.498007333	69889.6780395	69889.84304925	69890.038216916	69890.233318708
69903.603395458	5.35	0	69903.603395458	5.347086041991133	0.7845994579984108	69919.4533605	69908.9504815	69908.95339545801	69919.45339545801	69908.950571166	69919.450479958	10.5	976.12	y	62.0	0	4	1	2	121	160	1000	1050	69889.498007333	69889.6780395	69889.84304925	69890.038216916	69890.233318708
69903.603395458	5.35	0	69904.353395458	5.347086041991133	0.7845994579984108	69919.4533605	69908.9504815	69908.95339545801	69919.45339545801	69908.950571166	69919.450479958	10.5	1002.24	y	62.0	0	4	1	2	121	160	1000	1050	69889.498007333	69889.6780395	69889.84304925	69890.038216916	69890.233318708
69903.603395458	5.35	0	69905.103395458	5.347086041991133	0.7845994579984108	69919.4533605	69908.9504815	69908.95339545801	69919.45339545801	69908.950571166	69919.450479958	10.5	1002.97	y	62.0	0	4	1	2	121	160	1000	1050	69889.498007333	69889.6780395	69889.84304925	69890.038216916	69890.233318708
69903.603395458	5.35	0	69905.853395458	5.347086041991133	0.7845994579984108	69919.4533605	69908.9504815	69908.95339545801	69919.45339545801	69908.950571166	69919.450479958	10.5	1003.59	y	62.0	0	4	1	2	121	160	1000	1050	69889.498007333	69889.6780395	69889.84304925	69890.038216916	69890.233318708
69903.603395458	5.35	1	69906.603395458	5.347086041991133	0.7845994579984108	69919.4533605	69908.9504815	69908.95339545801	69919.45339545801	69908.950571166	69919.450479958	10.5	1072.83	y	62.0	0	4	1	2	121	160	1000	1050	69889.498007333	69889.6780395	69889.84304925	69890.038216916	69890.233318708
69903.603395458	5.35	0	69907.353395458	5.347086041991133	0.7845994579984108	69919.4533605	69908.9504815	69908.95339545801	69919.45339545801	69908.950571166	69919.450479958	10.5	1018.34	y	62.0	0	4	1	2	121	160	1000	1050	69889.498007333	69889.6780395	69889.84304925	69890.038216916	69890.233318708
69903.603395458	5.35	0	69908.103395458	5.347086041991133	0.7845994579984108	69919.4533605	69908.9504815	69908.95339545801	69919.45339545801	69908.950571166	69919.450479958	10.5	1016.89	y	62.0	0	4	1	2	121	160	1000	1050	69889.498007333	69889.6780395	69889.84304925	69890.038216916	69890.233318708
69903.603395458	5.35	0	69908.853395458	5.347086041991133	0.7845994579984108	69919.4533605	69908.9504815	69908.95339545801	69919.45339545801	69908.950571166	69919.450479958	10.5	1022.13	y	62.0	0	4	1	2	121	160	1000	1050	69889.498007333	69889.6780395	69889.84304925	69890.038216916	69890.233318708
69919.469922958	5.35	0	69919.469922958	5.347263250005199	0.5481478329893434	69936.319878958	69924.817186208	69924.819922958	69936.319922958	69924.817274166	69936.315534083	11.5	1019.11	l	14.0	0	5	1	2	122	160	1000	1050	69889.498007333	69889.6780395	69889.84304925	69890.038216916	69890.233318708
69919.469922958	5.35	0	69920.219922958	5.347263250005199	0.5481478329893434	69936.319878958	69924.817186208	69924.819922958	69936.319922958	69924.817274166	69936.315534083	11.5	1021.93	l	14.0	0	5	1	2	122	160	1000	1050	69889.498007333	69889.6780395	69889.84304925	69890.038216916	69890.233318708
69919.469922958	5.35	0	69920.969922958	5.347263250005199	0.5481478329893434	69936.319878958	69924.817186208	69924.819922958	69936.319922958	69924.817274166	69936.315534083	11.5	1022.52	l	14.0	0	5	1	2	122	160	1000	1050	69889.498007333	69889.6780395	69889.84304925	69890.038216916	69890.233318708
69919.469922958	5.35	0	69921.719922958	5.347263250005199	0.5481478329893434	69936.319878958	69924.817186208	69924.819922958	69936.319922958	69924.817274166	69936.315534083	11.5	1022.59	l	14.0	0	5	1	2	122	160	1000	1050	69889.498007333	69889.6780395	69889.84304925	69890.038216916	69890.233318708
69919.469922958	5.35	0	69922.469922958	5.347263250005199	0.5481478329893434	69936.319878958	69924.817186208	69924.819922958	69936.319922958	69924.817274166	69936.315534083	11.5	1003.45	l	14.0	0	5	1	2	122	160	1000	1050	69889.498007333	69889.6780395	69889.84304925	69890.038216916	69890.233318708
69919.469922958	5.35	1	69923.219922958	5.347263250005199	0.5481478329893434	69936.319878958	69924.817186208	69924.819922958	69936.319922958	69924.817274166	69936.315534083	11.5	1082.52	l	14.0	0	5	1	2	122	160	1000	1050	69889.498007333	69889.6780395	69889.84304925	69890.038216916	69890.233318708
69919.469922958	5.35	0	69923.969922958	5.347263250005199	0.5481478329893434	69936.319878958	69924.817186208	69924.819922958	69936.319922958	69924.817274166	69936.315534083	11.5	1041.33	l	14.0	0	5	1	2	122	160	1000	1050	69889.498007333	69889.6780395	69889.84304925	69890.038216916	69890.233318708
69919.469922958	5.35	0	69924.719922958	5.347263250005199	0.5481478329893434	69936.319878958	69924.817186208	69924.819922958	69936.319922958	69924.817274166	69936.315534083	11.5	1026.44	l	14.0	0	5	1	2	122	160	1000	1050	69889.498007333	69889.6780395	69889.84304925	69890.038216916	69890.233318708
69936.335191416	5.35	0	69936.335191416	5.348197833998711	0.4686261250026291	69952.685143791	69941.68338925	69941.685191416	69952.685191416	69941.683465875	69952.683889958	11.0	1056.7	l	84.0	0	5	1	2	123	160	1000	1050	69889.498007333	69889.6780395	69889.84304925	69890.038216916	69890.233318708
69936.335191416	5.35	0	69937.085191416	5.348197833998711	0.4686261250026291	69952.685143791	69941.68338925	69941.685191416	69952.685191416	69941.683465875	69952.683889958	11.0	1072.74	l	84.0	0	5	1	2	123	160	1000	1050	69889.498007333	69889.6780395	69889.84304925	69890.038216916	69890.233318708
69936.335191416	5.35	0	69937.835191416	5.348197833998711	0.4686261250026291	69952.685143791	69941.68338925	69941.685191416	69952.685191416	69941.683465875	69952.683889958	11.0	1092.83	l	84.0	0	5	1	2	123	160	1000	1050	69889.498007333	69889.6780395	69889.84304925	69890.038216916	69890.233318708
69936.335191416	5.35	0	69938.585191416	5.348197833998711	0.4686261250026291	69952.685143791	69941.68338925	69941.685191416	69952.685191416	69941.683465875	69952.683889958	11.0	1062.95	l	84.0	0	5	1	2	123	160	1000	1050	69889.498007333	69889.6780395	69889.84304925	69890.038216916	69890.233318708
69936.335191416	5.35	0	69939.335191416	5.348197833998711	0.4686261250026291	69952.685143791	69941.68338925	69941.685191416	69952.685191416	69941.683465875	69952.683889958	11.0	1083.22	l	84.0	0	5	1	2	123	160	1000	1050	69889.498007333	69889.6780395	69889.84304925	69890.038216916	69890.233318708
69936.335191416	5.35	1	69940.085191416	5.348197833998711	0.4686261250026291	69952.685143791	69941.68338925	69941.685191416	69952.685191416	69941.683465875	69952.683889958	11.0	1078.69	l	84.0	0	5	1	2	123	160	1000	1050	69889.498007333	69889.6780395	69889.84304925	69890.038216916	69890.233318708
69936.335191416	5.35	0	69940.835191416	5.348197833998711	0.4686261250026291	69952.685143791	69941.68338925	69941.685191416	69952.685191416	69941.683465875	69952.683889958	11.0	1040.32	l	84.0	0	5	1	2	123	160	1000	1050	69889.498007333	69889.6780395	69889.84304925	69890.038216916	69890.233318708
69936.335191416	5.35	0	69941.585191416	5.348197833998711	0.4686261250026291	69952.685143791	69941.68338925	69941.685191416	69952.685191416	69941.683465875	69952.683889958	11.0	1050.58	l	84.0	0	5	1	2	123	160	1000	1050	69889.498007333	69889.6780395	69889.84304925	69890.038216916	69890.233318708
69952.70170620801	5.35	0	69952.70170620801	5.346793874981813	0.816667208011495	69969.051654166	69958.048500083	69958.05170620802	69969.05170620802	69958.048576375	69969.050393291	11.0	1077.62	v	51.0	0	6	1	2	124	160	1000	1050	69889.498007333	69889.6780395	69889.84304925	69890.038216916	69890.233318708
69952.70170620801	5.35	0	69953.45170620801	5.346793874981813	0.816667208011495	69969.051654166	69958.048500083	69958.05170620802	69969.05170620802	69958.048576375	69969.050393291	11.0	1045.13	v	51.0	0	6	1	2	124	160	1000	1050	69889.498007333	69889.6780395	69889.84304925	69890.038216916	69890.233318708
69952.70170620801	5.35	0	69954.20170620801	5.346793874981813	0.816667208011495	69969.051654166	69958.048500083	69958.05170620802	69969.05170620802	69958.048576375	69969.050393291	11.0	1084.15	v	51.0	0	6	1	2	124	160	1000	1050	69889.498007333	69889.6780395	69889.84304925	69890.038216916	69890.233318708
69952.70170620801	5.35	0	69954.95170620801	5.346793874981813	0.816667208011495	69969.051654166	69958.048500083	69958.05170620802	69969.05170620802	69958.048576375	69969.050393291	11.0	1083.22	v	51.0	0	6	1	2	124	160	1000	1050	69889.498007333	69889.6780395	69889.84304925	69890.038216916	69890.233318708
69952.70170620801	5.35	0	69955.70170620801	5.346793874981813	0.816667208011495	69969.051654166	69958.048500083	69958.05170620802	69969.05170620802	69958.048576375	69969.050393291	11.0	1067.98	v	51.0	0	6	1	2	124	160	1000	1050	69889.498007333	69889.6780395	69889.84304925	69890.038216916	69890.233318708
69952.70170620801	5.35	0	69956.45170620801	5.346793874981813	0.816667208011495	69969.051654166	69958.048500083	69958.05170620802	69969.05170620802	69958.048576375	69969.050393291	11.0	1079.05	v	51.0	0	6	1	2	124	160	1000	1050	69889.498007333	69889.6780395	69889.84304925	69890.038216916	69890.233318708
69952.70170620801	5.35	1	69957.20170620801	5.346793874981813	0.816667208011495	69969.051654166	69958.048500083	69958.05170620802	69969.05170620802	69958.048576375	69969.050393291	11.0	1101.82	v	51.0	0	6	1	2	124	160	1000	1050	69889.498007333	69889.6780395	69889.84304925	69890.038216916	69890.233318708
69952.70170620801	5.35	0	69957.95170620801	5.346793874981813	0.816667208011495	69969.051654166	69958.048500083	69958.05170620802	69969.05170620802	69958.048576375	69969.050393291	11.0	1063.92	v	51.0	0	6	1	2	124	160	1000	1050	69889.498007333	69889.6780395	69889.84304925	69890.038216916	69890.233318708
69969.070404083	5.35	0	69969.070404083	5.344956624991028		69985.420349208	69974.415360708	69974.42040408301	69985.42040408301	69974.415429375	69985.417146291	11.0	1035.47			3	6	1	2	125	160	1000	1050	69889.498007333	69889.6780395	69889.84304925	69890.038216916	69890.233318708
69969.070404083	5.35	0	69969.820404083	5.344956624991028		69985.420349208	69974.415360708	69974.42040408301	69985.42040408301	69974.415429375	69985.417146291	11.0	1084.67			3	6	1	2	125	160	1000	1050	69889.498007333	69889.6780395	69889.84304925	69890.038216916	69890.233318708
69969.070404083	5.35	0	69970.570404083	5.344956624991028		69985.420349208	69974.415360708	69974.42040408301	69985.42040408301	69974.415429375	69985.417146291	11.0	1080.09			3	6	1	2	125	160	1000	1050	69889.498007333	69889.6780395	69889.84304925	69890.038216916	69890.233318708
69969.070404083	5.35	0	69971.320404083	5.344956624991028		69985.420349208	69974.415360708	69974.42040408301	69985.42040408301	69974.415429375	69985.417146291	11.0	1082.34			3	6	1	2	125	160	1000	1050	69889.498007333	69889.6780395	69889.84304925	69890.038216916	69890.233318708
69969.070404083	5.35	0	69972.070404083	5.344956624991028		69985.420349208	69974.415360708	69974.42040408301	69985.42040408301	69974.415429375	69985.417146291	11.0	1111.08			3	6	1	2	125	160	1000	1050	69889.498007333	69889.6780395	69889.84304925	69890.038216916	69890.233318708
69969.070404083	5.35	0	69972.820404083	5.344956624991028		69985.420349208	69974.415360708	69974.42040408301	69985.42040408301	69974.415429375	69985.417146291	11.0	1088.94			3	6	1	2	125	160	1000	1050	69889.498007333	69889.6780395	69889.84304925	69890.038216916	69890.233318708
69969.070404083	5.35	1	69973.570404083	5.344956624991028		69985.420349208	69974.415360708	69974.42040408301	69985.42040408301	69974.415429375	69985.417146291	11.0	1093.95			3	6	1	2	125	160	1000	1050	69889.498007333	69889.6780395	69889.84304925	69890.038216916	69890.233318708
69969.070404083	5.35	0	69974.320404083	5.344956624991028		69985.420349208	69974.415360708	69974.42040408301	69985.42040408301	69974.415429375	69985.417146291	11.0	1119.68			3	6	1	2	125	160	1000	1050	69889.498007333	69889.6780395	69889.84304925	69890.038216916	69890.233318708
69985.43691166601	5.35	0	69985.43691166601	5.345064208988333		69999.786861125	69990.781975875	69990.78691166601	69999.78691166601	69990.782051166	69999.784726083	9.0	1120.97			3	4	1	2	126	160	1000	1050	69889.498007333	69889.6780395	69889.84304925	69890.038216916	69890.233318708
69985.43691166601	5.35	0	69986.18691166601	5.345064208988333		69999.786861125	69990.781975875	69990.78691166601	69999.78691166601	69990.782051166	69999.784726083	9.0	1131.75			3	4	1	2	126	160	1000	1050	69889.498007333	69889.6780395	69889.84304925	69890.038216916	69890.233318708
69985.43691166601	5.35	0	69986.93691166601	5.345064208988333		69999.786861125	69990.781975875	69990.78691166601	69999.78691166601	69990.782051166	69999.784726083	9.0	1089.83			3	4	1	2	126	160	1000	1050	69889.498007333	69889.6780395	69889.84304925	69890.038216916	69890.233318708
69985.43691166601	5.35	0	69987.68691166601	5.345064208988333		69999.786861125	69990.781975875	69990.78691166601	69999.78691166601	69990.782051166	69999.784726083	9.0	1091.19			3	4	1	2	126	160	1000	1050	69889.498007333	69889.6780395	69889.84304925	69890.038216916	69890.233318708
69985.43691166601	5.35	1	69988.43691166601	5.345064208988333		69999.786861125	69990.781975875	69990.78691166601	69999.78691166601	69990.782051166	69999.784726083	9.0	1069.6			3	4	1	2	126	160	1000	1050	69889.498007333	69889.6780395	69889.84304925	69890.038216916	69890.233318708
69985.43691166601	5.35	0	69989.18691166601	5.345064208988333		69999.786861125	69990.781975875	69990.78691166601	69999.78691166601	69990.782051166	69999.784726083	9.0	1103.55			3	4	1	2	126	160	1000	1050	69889.498007333	69889.6780395	69889.84304925	69890.038216916	69890.233318708
69985.43691166601	5.35	0	69989.93691166601	5.345064208988333		69999.786861125	69990.781975875	69990.78691166601	69999.78691166601	69990.782051166	69999.784726083	9.0	1098.45			3	4	1	2	126	160	1000	1050	69889.498007333	69889.6780395	69889.84304925	69890.038216916	69890.233318708
69985.43691166601	5.35	0	69990.68691166601	5.345064208988333		69999.786861125	69990.781975875	69990.78691166601	69999.78691166601	69990.782051166	69999.784726083	9.0	1107.77			3	4	1	2	126	160	1000	1050	69889.498007333	69889.6780395	69889.84304925	69890.038216916	69890.233318708
69999.794048625	5.35	0	69999.794048625	5.340169415998389		70013.14400045799	70005.134218041	70005.144048625	70013.144048625	70005.134352708	70013.133531625	8.0	1110.44			3	4	0	2	127	160	1000	1050	69889.498007333	69889.6780395	69889.84304925	69890.038216916	69890.233318708
69999.794048625	5.35	0	70000.544048625	5.340169415998389		70013.14400045799	70005.134218041	70005.144048625	70013.144048625	70005.134352708	70013.133531625	8.0	1094.69			3	4	0	2	127	160	1000	1050	69889.498007333	69889.6780395	69889.84304925	69890.038216916	69890.233318708
69999.794048625	5.35	0	70001.294048625	5.340169415998389		70013.14400045799	70005.134218041	70005.144048625	70013.144048625	70005.134352708	70013.133531625	8.0	1092.51			3	4	0	2	127	160	1000	1050	69889.498007333	69889.6780395	69889.84304925	69890.038216916	69890.233318708
69999.794048625	5.35	0	70002.044048625	5.340169415998389		70013.14400045799	70005.134218041	70005.144048625	70013.144048625	70005.134352708	70013.133531625	8.0	1075.56			3	4	0	2	127	160	1000	1050	69889.498007333	69889.6780395	69889.84304925	69890.038216916	69890.233318708
69999.794048625	5.35	1	70002.794048625	5.340169415998389		70013.14400045799	70005.134218041	70005.144048625	70013.144048625	70005.134352708	70013.133531625	8.0	1087.75			3	4	0	2	127	160	1000	1050	69889.498007333	69889.6780395	69889.84304925	69890.038216916	69890.233318708
69999.794048625	5.35	0	70003.544048625	5.340169415998389		70013.14400045799	70005.134218041	70005.144048625	70013.144048625	70005.134352708	70013.133531625	8.0	1060.45			3	4	0	2	127	160	1000	1050	69889.498007333	69889.6780395	69889.84304925	69890.038216916	69890.233318708
69999.794048625	5.35	0	70004.294048625	5.340169415998389		70013.14400045799	70005.134218041	70005.144048625	70013.144048625	70005.134352708	70013.133531625	8.0	1078.14			3	4	0	2	127	160	1000	1050	69889.498007333	69889.6780395	69889.84304925	69890.038216916	69890.233318708
69999.794048625	5.35	0	70005.044048625	5.340169415998389		70013.14400045799	70005.134218041	70005.144048625	70013.144048625	70005.134352708	70013.133531625	8.0	1069.43			3	4	0	2	127	160	1000	1050	69889.498007333	69889.6780395	69889.84304925	69890.038216916	69890.233318708
70013.15306291601	5.35	0	70013.15306291601	5.346825541986618		70026.003015166	70018.499888458	70018.50306291602	70026.00306291602	70018.499964125	70025.998568791	7.5	1081.26			3	4	0	2	128	160	1000	1050	69889.498007333	69889.6780395	69889.84304925	69890.038216916	69890.233318708
70013.15306291601	5.35	0	70013.90306291601	5.346825541986618		70026.003015166	70018.499888458	70018.50306291602	70026.00306291602	70018.499964125	70025.998568791	7.5	1097.84			3	4	0	2	128	160	1000	1050	69889.498007333	69889.6780395	69889.84304925	69890.038216916	69890.233318708
70013.15306291601	5.35	0	70014.65306291601	5.346825541986618		70026.003015166	70018.499888458	70018.50306291602	70026.00306291602	70018.499964125	70025.998568791	7.5	1076.35			3	4	0	2	128	160	1000	1050	69889.498007333	69889.6780395	69889.84304925	69890.038216916	69890.233318708
70013.15306291601	5.35	0	70015.40306291601	5.346825541986618		70026.003015166	70018.499888458	70018.50306291602	70026.00306291602	70018.499964125	70025.998568791	7.5	1069.52			3	4	0	2	128	160	1000	1050	69889.498007333	69889.6780395	69889.84304925	69890.038216916	69890.233318708
70013.15306291601	5.35	1	70016.15306291601	5.346825541986618		70026.003015166	70018.499888458	70018.50306291602	70026.00306291602	70018.499964125	70025.998568791	7.5	1092.3			3	4	0	2	128	160	1000	1050	69889.498007333	69889.6780395	69889.84304925	69890.038216916	69890.233318708
70013.15306291601	5.35	0	70016.90306291601	5.346825541986618		70026.003015166	70018.499888458	70018.50306291602	70026.00306291602	70018.499964125	70025.998568791	7.5	1069.77			3	4	0	2	128	160	1000	1050	69889.498007333	69889.6780395	69889.84304925	69890.038216916	69890.233318708
70013.15306291601	5.35	0	70017.65306291601	5.346825541986618		70026.003015166	70018.499888458	70018.50306291602	70026.00306291602	70018.499964125	70025.998568791	7.5	1047.84			3	4	0	2	128	160	1000	1050	69889.498007333	69889.6780395	69889.84304925	69890.038216916	69890.233318708
70013.15306291601	5.35	0	70018.40306291601	5.346825541986618		70026.003015166	70018.499888458	70018.50306291602	70026.00306291602	70018.499964125	70025.998568791	7.5	1046.19			3	4	0	2	128	160	1000	1050	69889.498007333	69889.6780395	69889.84304925	69890.038216916	69890.233318708
70026.018015083	5.35	0	70026.018015083	5.34881670800678		70041.36795775	70031.366831791	70031.368015083	70041.368015083	70031.366916125	70041.367315	10.0	1031.6			3	2	0	2	129	160	1000	1050	69889.498007333	69889.6780395	69889.84304925	69890.038216916	69890.233318708
70026.018015083	5.35	0	70026.768015083	5.34881670800678		70041.36795775	70031.366831791	70031.368015083	70041.368015083	70031.366916125	70041.367315	10.0	1020.94			3	2	0	2	129	160	1000	1050	69889.498007333	69889.6780395	69889.84304925	69890.038216916	69890.233318708
70026.018015083	5.35	1	70027.518015083	5.34881670800678		70041.36795775	70031.366831791	70031.368015083	70041.368015083	70031.366916125	70041.367315	10.0	1119.95			3	2	0	2	129	160	1000	1050	69889.498007333	69889.6780395	69889.84304925	69890.038216916	69890.233318708
70026.018015083	5.35	0	70028.268015083	5.34881670800678		70041.36795775	70031.366831791	70031.368015083	70041.368015083	70031.366916125	70041.367315	10.0	1012.87			3	2	0	2	129	160	1000	1050	69889.498007333	69889.6780395	69889.84304925	69890.038216916	69890.233318708
70026.018015083	5.35	0	70029.018015083	5.34881670800678		70041.36795775	70031.366831791	70031.368015083	70041.368015083	70031.366916125	70041.367315	10.0	1024.0			3	2	0	2	129	160	1000	1050	69889.498007333	69889.6780395	69889.84304925	69890.038216916	69890.233318708
70026.018015083	5.35	0	70029.768015083	5.34881670800678		70041.36795775	70031.366831791	70031.368015083	70041.368015083	70031.366916125	70041.367315	10.0	1020.46			3	2	0	2	129	160	1000	1050	69889.498007333	69889.6780395	69889.84304925	69890.038216916	69890.233318708
70026.018015083	5.35	0	70030.518015083	5.34881670800678		70041.36795775	70031.366831791	70031.368015083	70041.368015083	70031.366916125	70041.367315	10.0	1033.92			3	2	0	2	129	160	1000	1050	69889.498007333	69889.6780395	69889.84304925	69890.038216916	69890.233318708
70026.018015083	5.35	0	70031.268015083	5.34881670800678		70041.36795775	70031.366831791	70031.368015083	70041.368015083	70031.366916125	70041.367315	10.0	1005.39			3	2	0	2	129	160	1000	1050	69889.498007333	69889.6780395	69889.84304925	69890.038216916	69890.233318708
70041.384520166	5.35	0	70041.384520166	5.349155333999079		70057.234459958	70046.7336755	70046.734520166	70057.234520166	70046.733769625	70057.233152208	10.5	1032.85			4	0	2	2	130	160	1000	1050	69889.498007333	69889.6780395	69889.84304925	69890.038216916	69890.233318708
70041.384520166	5.35	0	70042.134520166	5.349155333999079		70057.234459958	70046.7336755	70046.734520166	70057.234520166	70046.733769625	70057.233152208	10.5	1046.81			4	0	2	2	130	160	1000	1050	69889.498007333	69889.6780395	69889.84304925	69890.038216916	69890.233318708
70041.384520166	5.35	0	70042.884520166	5.349155333999079		70057.234459958	70046.7336755	70046.734520166	70057.234520166	70046.733769625	70057.233152208	10.5	1030.49			4	0	2	2	130	160	1000	1050	69889.498007333	69889.6780395	69889.84304925	69890.038216916	69890.233318708
70041.384520166	5.35	0	70043.634520166	5.349155333999079		70057.234459958	70046.7336755	70046.734520166	70057.234520166	70046.733769625	70057.233152208	10.5	1043.54			4	0	2	2	130	160	1000	1050	69889.498007333	69889.6780395	69889.84304925	69890.038216916	69890.233318708
70041.384520166	5.35	0	70044.384520166	5.349155333999079		70057.234459958	70046.7336755	70046.734520166	70057.234520166	70046.733769625	70057.233152208	10.5	1032.94			4	0	2	2	130	160	1000	1050	69889.498007333	69889.6780395	69889.84304925	69890.038216916	69890.233318708
70041.384520166	5.35	0	70045.134520166	5.349155333999079		70057.234459958	70046.7336755	70046.734520166	70057.234520166	70046.733769625	70057.233152208	10.5	1057.21			4	0	2	2	130	160	1000	1050	69889.498007333	69889.6780395	69889.84304925	69890.038216916	69890.233318708
70041.384520166	5.35	0	70045.884520166	5.349155333999079		70057.234459958	70046.7336755	70046.734520166	70057.234520166	70046.733769625	70057.233152208	10.5	1062.82			4	0	2	2	130	160	1000	1050	69889.498007333	69889.6780395	69889.84304925	69890.038216916	69890.233318708
70041.384520166	5.35	0	70046.634520166	5.349155333999079		70057.234459958	70046.7336755	70046.734520166	70057.234520166	70046.733769625	70057.233152208	10.5	1096.92			4	0	2	2	130	160	1000	1050	69889.498007333	69889.6780395	69889.84304925	69890.038216916	69890.233318708
70057.251334875	5.35	0	70057.251334875	5.348973624990322		70073.601272291	70062.6003085	70062.60133487501	70073.60133487501	70062.60039825	70073.599872916	11.0	1085.92			3	2	0	2	131	160	1000	1050	69889.498007333	69889.6780395	69889.84304925	69890.038216916	69890.233318708
70057.251334875	5.35	0	70058.001334875	5.348973624990322		70073.601272291	70062.6003085	70062.60133487501	70073.60133487501	70062.60039825	70073.599872916	11.0	1099.9			3	2	0	2	131	160	1000	1050	69889.498007333	69889.6780395	69889.84304925	69890.038216916	69890.233318708
70057.251334875	5.35	1	70058.751334875	5.348973624990322		70073.601272291	70062.6003085	70062.60133487501	70073.60133487501	70062.60039825	70073.599872916	11.0	1130.16			3	2	0	2	131	160	1000	1050	69889.498007333	69889.6780395	69889.84304925	69890.038216916	69890.233318708
70057.251334875	5.35	0	70059.501334875	5.348973624990322		70073.601272291	70062.6003085	70062.60133487501	70073.60133487501	70062.60039825	70073.599872916	11.0	1140.21			3	2	0	2	131	160	1000	1050	69889.498007333	69889.6780395	69889.84304925	69890.038216916	69890.233318708
70057.251334875	5.35	0	70060.251334875	5.348973624990322		70073.601272291	70062.6003085	70062.60133487501	70073.60133487501	70062.60039825	70073.599872916	11.0	1127.15			3	2	0	2	131	160	1000	1050	69889.498007333	69889.6780395	69889.84304925	69890.038216916	69890.233318708
70057.251334875	5.35	0	70061.001334875	5.348973624990322		70073.601272291	70062.6003085	70062.60133487501	70073.60133487501	70062.60039825	70073.599872916	11.0	1118.86			3	2	0	2	131	160	1000	1050	69889.498007333	69889.6780395	69889.84304925	69890.038216916	69890.233318708
70057.251334875	5.35	0	70061.751334875	5.348973624990322		70073.601272291	70062.6003085	70062.60133487501	70073.60133487501	70062.60039825	70073.599872916	11.0	1147.08			3	2	0	2	131	160	1000	1050	69889.498007333	69889.6780395	69889.84304925	69890.038216916	69890.233318708
70057.251334875	5.35	0	70062.501334875	5.348973624990322		70073.601272291	70062.6003085	70062.60133487501	70073.60133487501	70062.60039825	70073.599872916	11.0	1125.07			3	2	0	2	131	160	1000	1050	69889.498007333	69889.6780395	69889.84304925	69890.038216916	69890.233318708
70073.61939720801	5.35	0	70073.61939720801	5.347109582988196		70090.469332416	70078.966506791	70078.96939720801	70090.46939720801	70078.966606166	70090.464950166	11.5	1127.6			3	4	0	2	132	160	1000	1050	69889.498007333	69889.6780395	69889.84304925	69890.038216916	69890.233318708
70073.61939720801	5.35	0	70074.36939720801	5.347109582988196		70090.469332416	70078.966506791	70078.96939720801	70090.46939720801	70078.966606166	70090.464950166	11.5	1112.53			3	4	0	2	132	160	1000	1050	69889.498007333	69889.6780395	69889.84304925	69890.038216916	69890.233318708
70073.61939720801	5.35	0	70075.11939720801	5.347109582988196		70090.469332416	70078.966506791	70078.96939720801	70090.46939720801	70078.966606166	70090.464950166	11.5	1125.6			3	4	0	2	132	160	1000	1050	69889.498007333	69889.6780395	69889.84304925	69890.038216916	69890.233318708
70073.61939720801	5.35	0	70075.86939720801	5.347109582988196		70090.469332416	70078.966506791	70078.96939720801	70090.46939720801	70078.966606166	70090.464950166	11.5	1109.42			3	4	0	2	132	160	1000	1050	69889.498007333	69889.6780395	69889.84304925	69890.038216916	69890.233318708
70073.61939720801	5.35	1	70076.61939720801	5.347109582988196		70090.469332416	70078.966506791	70078.96939720801	70090.46939720801	70078.966606166	70090.464950166	11.5	1126.32			3	4	0	2	132	160	1000	1050	69889.498007333	69889.6780395	69889.84304925	69890.038216916	69890.233318708
70073.61939720801	5.35	0	70077.36939720801	5.347109582988196		70090.469332416	70078.966506791	70078.96939720801	70090.46939720801	70078.966606166	70090.464950166	11.5	1114.94			3	4	0	2	132	160	1000	1050	69889.498007333	69889.6780395	69889.84304925	69890.038216916	69890.233318708
70073.61939720801	5.35	0	70078.11939720801	5.347109582988196		70090.469332416	70078.966506791	70078.96939720801	70090.46939720801	70078.966606166	70090.464950166	11.5	1110.41			3	4	0	2	132	160	1000	1050	69889.498007333	69889.6780395	69889.84304925	69890.038216916	69890.233318708
70073.61939720801	5.35	0	70078.86939720801	5.347109582988196		70090.469332416	70078.966506791	70078.96939720801	70090.46939720801	70078.966606166	70090.464950166	11.5	1113.62			3	4	0	2	132	160	1000	1050	69889.498007333	69889.6780395	69889.84304925	69890.038216916	69890.233318708
70090.48433237501	5.35	0	70090.48433237501	5.34729820798384		70104.334279	70095.831630583	70095.83433237502	70104.33433237502	70095.83170875	70104.333521916	8.5	1087.67			3	4	0	2	133	160	1000	1050	69889.498007333	69889.6780395	69889.84304925	69890.038216916	69890.233318708
70090.48433237501	5.35	0	70091.23433237501	5.34729820798384		70104.334279	70095.831630583	70095.83433237502	70104.33433237502	70095.83170875	70104.333521916	8.5	1072.15			3	4	0	2	133	160	1000	1050	69889.498007333	69889.6780395	69889.84304925	69890.038216916	69890.233318708
70090.48433237501	5.35	0	70091.98433237501	5.34729820798384		70104.334279	70095.831630583	70095.83433237502	70104.33433237502	70095.83170875	70104.333521916	8.5	1065.36			3	4	0	2	133	160	1000	1050	69889.498007333	69889.6780395	69889.84304925	69890.038216916	69890.233318708
70090.48433237501	5.35	0	70092.73433237501	5.34729820798384		70104.334279	70095.831630583	70095.83433237502	70104.33433237502	70095.83170875	70104.333521916	8.5	1067.72			3	4	0	2	133	160	1000	1050	69889.498007333	69889.6780395	69889.84304925	69890.038216916	69890.233318708
70090.48433237501	5.35	1	70093.48433237501	5.34729820798384		70104.334279	70095.831630583	70095.83433237502	70104.33433237502	70095.83170875	70104.333521916	8.5	1147.29			3	4	0	2	133	160	1000	1050	69889.498007333	69889.6780395	69889.84304925	69890.038216916	69890.233318708
70090.48433237501	5.35	0	70094.23433237501	5.34729820798384		70104.334279	70095.831630583	70095.83433237502	70104.33433237502	70095.83170875	70104.333521916	8.5	1075.1			3	4	0	2	133	160	1000	1050	69889.498007333	69889.6780395	69889.84304925	69890.038216916	69890.233318708
70090.48433237501	5.35	0	70094.98433237501	5.34729820798384		70104.334279	70095.831630583	70095.83433237502	70104.33433237502	70095.83170875	70104.333521916	8.5	1083.39			3	4	0	2	133	160	1000	1050	69889.498007333	69889.6780395	69889.84304925	69890.038216916	69890.233318708
70090.48433237501	5.35	0	70095.73433237501	5.34729820798384		70104.334279	70095.831630583	70095.83433237502	70104.33433237502	70095.83170875	70104.333521916	8.5	1066.3			3	4	0	2	133	160	1000	1050	69889.498007333	69889.6780395	69889.84304925	69890.038216916	69890.233318708
70104.352716416	5.35	0	70104.352716416	5.34544166699925		70120.202654916	70109.698158083	70109.70271641601	70120.20271641601	70109.698228083	70120.19811225	10.5	1043.18			3	2	0	2	134	160	1000	1050	69889.498007333	69889.6780395	69889.84304925	69890.038216916	69890.233318708
70104.352716416	5.35	0	70105.102716416	5.34544166699925		70120.202654916	70109.698158083	70109.70271641601	70120.20271641601	70109.698228083	70120.19811225	10.5	1029.37			3	2	0	2	134	160	1000	1050	69889.498007333	69889.6780395	69889.84304925	69890.038216916	69890.233318708
70104.352716416	5.35	1	70105.852716416	5.34544166699925		70120.202654916	70109.698158083	70109.70271641601	70120.20271641601	70109.698228083	70120.19811225	10.5	1109.56			3	2	0	2	134	160	1000	1050	69889.498007333	69889.6780395	69889.84304925	69890.038216916	69890.233318708
70104.352716416	5.35	0	70106.602716416	5.34544166699925		70120.202654916	70109.698158083	70109.70271641601	70120.20271641601	70109.698228083	70120.19811225	10.5	1040.7			3	2	0	2	134	160	1000	1050	69889.498007333	69889.6780395	69889.84304925	69890.038216916	69890.233318708
70104.352716416	5.35	0	70107.352716416	5.34544166699925		70120.202654916	70109.698158083	70109.70271641601	70120.20271641601	70109.698228083	70120.19811225	10.5	1033.35			3	2	0	2	134	160	1000	1050	69889.498007333	69889.6780395	69889.84304925	69890.038216916	69890.233318708
70104.352716416	5.35	0	70108.102716416	5.34544166699925		70120.202654916	70109.698158083	70109.70271641601	70120.20271641601	70109.698228083	70120.19811225	10.5	1003.64			3	2	0	2	134	160	1000	1050	69889.498007333	69889.6780395	69889.84304925	69890.038216916	69890.233318708
70104.352716416	5.35	0	70108.852716416	5.34544166699925		70120.202654916	70109.698158083	70109.70271641601	70120.20271641601	70109.698228083	70120.19811225	10.5	1007.16			3	2	0	2	134	160	1000	1050	69889.498007333	69889.6780395	69889.84304925	69890.038216916	69890.233318708
70104.352716416	5.35	0	70109.602716416	5.34544166699925		70120.202654916	70109.698158083	70109.70271641601	70120.20271641601	70109.698228083	70120.19811225	10.5	1002.01			3	2	0	2	134	160	1000	1050	69889.498007333	69889.6780395	69889.84304925	69890.038216916	69890.233318708
70120.217342375	5.35	0	70120.217342375	5.3491547079902375		70135.067284416	70125.566497083	70125.56734237501	70135.06734237501	70125.566593666	70135.066919625	9.5	1027.77			4	0	2	2	135	160	1000	1050	69889.498007333	69889.6780395	69889.84304925	69890.038216916	69890.233318708
70120.217342375	5.35	0	70120.967342375	5.3491547079902375		70135.067284416	70125.566497083	70125.56734237501	70135.06734237501	70125.566593666	70135.066919625	9.5	982.65			4	0	2	2	135	160	1000	1050	69889.498007333	69889.6780395	69889.84304925	69890.038216916	69890.233318708
70120.217342375	5.35	0	70121.717342375	5.3491547079902375		70135.067284416	70125.566497083	70125.56734237501	70135.06734237501	70125.566593666	70135.066919625	9.5	1026.88			4	0	2	2	135	160	1000	1050	69889.498007333	69889.6780395	69889.84304925	69890.038216916	69890.233318708
70120.217342375	5.35	0	70122.467342375	5.3491547079902375		70135.067284416	70125.566497083	70125.56734237501	70135.06734237501	70125.566593666	70135.066919625	9.5	1013.31			4	0	2	2	135	160	1000	1050	69889.498007333	69889.6780395	69889.84304925	69890.038216916	69890.233318708
70120.217342375	5.35	0	70123.217342375	5.3491547079902375		70135.067284416	70125.566497083	70125.56734237501	70135.06734237501	70125.566593666	70135.066919625	9.5	1021.11			4	0	2	2	135	160	1000	1050	69889.498007333	69889.6780395	69889.84304925	69890.038216916	69890.233318708
70120.217342375	5.35	0	70123.967342375	5.3491547079902375		70135.067284416	70125.566497083	70125.56734237501	70135.06734237501	70125.566593666	70135.066919625	9.5	1002.08			4	0	2	2	135	160	1000	1050	69889.498007333	69889.6780395	69889.84304925	69890.038216916	69890.233318708
70120.217342375	5.35	0	70124.717342375	5.3491547079902375		70135.067284416	70125.566497083	70125.56734237501	70135.06734237501	70125.566593666	70135.066919625	9.5	1014.84			4	0	2	2	135	160	1000	1050	69889.498007333	69889.6780395	69889.84304925	69890.038216916	69890.233318708
70120.217342375	5.35	0	70125.467342375	5.3491547079902375		70135.067284416	70125.566497083	70125.56734237501	70135.06734237501	70125.566593666	70135.066919625	9.5	996.63			4	0	2	2	135	160	1000	1050	69889.498007333	69889.6780395	69889.84304925	69890.038216916	69890.233318708
70135.085721875	5.35	0	70135.085721875	5.345756875001825		70148.935667333	70140.43147875	70140.43572187501	70148.93572187501	70140.431599416	70148.931230583	8.5	1002.43			3	6	1	2	136	160	1000	1050	69889.498007333	69889.6780395	69889.84304925	69890.038216916	69890.233318708
70135.085721875	5.35	0	70135.835721875	5.345756875001825		70148.935667333	70140.43147875	70140.43572187501	70148.93572187501	70140.431599416	70148.931230583	8.5	1009.13			3	6	1	2	136	160	1000	1050	69889.498007333	69889.6780395	69889.84304925	69890.038216916	69890.233318708
70135.085721875	5.35	0	70136.585721875	5.345756875001825		70148.935667333	70140.43147875	70140.43572187501	70148.93572187501	70140.431599416	70148.931230583	8.5	973.25			3	6	1	2	136	160	1000	1050	69889.498007333	69889.6780395	69889.84304925	69890.038216916	69890.233318708
70135.085721875	5.35	0	70137.335721875	5.345756875001825		70148.935667333	70140.43147875	70140.43572187501	70148.93572187501	70140.431599416	70148.931230583	8.5	992.21			3	6	1	2	136	160	1000	1050	69889.498007333	69889.6780395	69889.84304925	69890.038216916	69890.233318708
70135.085721875	5.35	0	70138.085721875	5.345756875001825		70148.935667333	70140.43147875	70140.43572187501	70148.93572187501	70140.431599416	70148.931230583	8.5	968.19			3	6	1	2	136	160	1000	1050	69889.498007333	69889.6780395	69889.84304925	69890.038216916	69890.233318708
70135.085721875	5.35	0	70138.835721875	5.345756875001825		70148.935667333	70140.43147875	70140.43572187501	70148.93572187501	70140.431599416	70148.931230583	8.5	984.49			3	6	1	2	136	160	1000	1050	69889.498007333	69889.6780395	69889.84304925	69890.038216916	69890.233318708
70135.085721875	5.35	1	70139.585721875	5.345756875001825		70148.935667333	70140.43147875	70140.43572187501	70148.93572187501	70140.431599416	70148.931230583	8.5	1108.86			3	6	1	2	136	160	1000	1050	69889.498007333	69889.6780395	69889.84304925	69890.038216916	69890.233318708
70135.085721875	5.35	0	70140.335721875	5.345756875001825		70148.935667333	70140.43147875	70140.43572187501	70148.93572187501	70140.431599416	70148.931230583	8.5	991.93			3	6	1	2	136	160	1000	1050	69889.498007333	69889.6780395	69889.84304925	69890.038216916	69890.233318708
70148.95254225	5.35	0	70148.95254225	5.34547037500306		70164.802479375	70154.298012625	70154.30254225	70164.80254225	70154.298084916	70164.800403291	10.5	1001.5			3	4	1	2	137	160	1000	1050	69889.498007333	69889.6780395	69889.84304925	69890.038216916	69890.233318708
70148.95254225	5.35	0	70149.70254225	5.34547037500306		70164.802479375	70154.298012625	70154.30254225	70164.80254225	70154.298084916	70164.800403291	10.5	1003.89			3	4	1	2	137	160	1000	1050	69889.498007333	69889.6780395	69889.84304925	69890.038216916	69890.233318708
70148.95254225	5.35	0	70150.45254225	5.34547037500306		70164.802479375	70154.298012625	70154.30254225	70164.80254225	70154.298084916	70164.800403291	10.5	988.8			3	4	1	2	137	160	1000	1050	69889.498007333	69889.6780395	69889.84304925	69890.038216916	69890.233318708
70148.95254225	5.35	0	70151.20254225	5.34547037500306		70164.802479375	70154.298012625	70154.30254225	70164.80254225	70154.298084916	70164.800403291	10.5	967.0			3	4	1	2	137	160	1000	1050	69889.498007333	69889.6780395	69889.84304925	69890.038216916	69890.233318708
70148.95254225	5.35	1	70151.95254225	5.34547037500306		70164.802479375	70154.298012625	70154.30254225	70164.80254225	70154.298084916	70164.800403291	10.5	1095.32			3	4	1	2	137	160	1000	1050	69889.498007333	69889.6780395	69889.84304925	69890.038216916	69890.233318708
70148.95254225	5.35	0	70152.70254225	5.34547037500306		70164.802479375	70154.298012625	70154.30254225	70164.80254225	70154.298084916	70164.800403291	10.5	949.93			3	4	1	2	137	160	1000	1050	69889.498007333	69889.6780395	69889.84304925	69890.038216916	69890.233318708
70148.95254225	5.35	0	70153.45254225	5.34547037500306		70164.802479375	70154.298012625	70154.30254225	70164.80254225	70154.298084916	70164.800403291	10.5	990.84			3	4	1	2	137	160	1000	1050	69889.498007333	69889.6780395	69889.84304925	69890.038216916	69890.233318708
70148.95254225	5.35	0	70154.20254225	5.34547037500306		70164.802479375	70154.298012625	70154.30254225	70164.80254225	70154.298084916	70164.800403291	10.5	976.29			3	4	1	2	137	160	1000	1050	69889.498007333	69889.6780395	69889.84304925	69890.038216916	69890.233318708
70164.820291833	5.35	0	70164.820291833	5.344165624992456		70178.170238083	70170.164457458	70170.17029183301	70178.17029183301	70170.164528875	70178.166146916	8.0	990.37			3	4	1	2	138	160	1000	1050	69889.498007333	69889.6780395	69889.84304925	69890.038216916	69890.233318708
70164.820291833	5.35	0	70165.570291833	5.344165624992456		70178.170238083	70170.164457458	70170.17029183301	70178.17029183301	70170.164528875	70178.166146916	8.0	964.97			3	4	1	2	138	160	1000	1050	69889.498007333	69889.6780395	69889.84304925	69890.038216916	69890.233318708
70164.820291833	5.35	0	70166.320291833	5.344165624992456		70178.170238083	70170.164457458	70170.17029183301	70178.17029183301	70170.164528875	70178.166146916	8.0	975.2			3	4	1	2	138	160	1000	1050	69889.498007333	69889.6780395	69889.84304925	69890.038216916	69890.233318708
70164.820291833	5.35	0	70167.070291833	5.344165624992456		70178.170238083	70170.164457458	70170.17029183301	70178.17029183301	70170.164528875	70178.166146916	8.0	988.57			3	4	1	2	138	160	1000	1050	69889.498007333	69889.6780395	69889.84304925	69890.038216916	69890.233318708
70164.820291833	5.35	1	70167.820291833	5.344165624992456		70178.170238083	70170.164457458	70170.17029183301	70178.17029183301	70170.164528875	70178.166146916	8.0	1113.31			3	4	1	2	138	160	1000	1050	69889.498007333	69889.6780395	69889.84304925	69890.038216916	69890.233318708
70164.820291833	5.35	0	70168.570291833	5.344165624992456		70178.170238083	70170.164457458	70170.17029183301	70178.17029183301	70170.164528875	70178.166146916	8.0	1021.29			3	4	1	2	138	160	1000	1050	69889.498007333	69889.6780395	69889.84304925	69890.038216916	69890.233318708
70164.820291833	5.35	0	70169.320291833	5.344165624992456		70178.170238083	70170.164457458	70170.17029183301	70178.17029183301	70170.164528875	70178.166146916	8.0	1002.53			3	4	1	2	138	160	1000	1050	69889.498007333	69889.6780395	69889.84304925	69890.038216916	69890.233318708
70164.820291833	5.35	0	70170.070291833	5.344165624992456		70178.170238083	70170.164457458	70170.17029183301	70178.17029183301	70170.164528875	70178.166146916	8.0	1009.0			3	4	1	2	138	160	1000	1050	69889.498007333	69889.6780395	69889.84304925	69890.038216916	69890.233318708
70178.186175541	5.35	0	70178.186175541	5.3452458339888835	0.352353000009316	70195.036107166	70183.531421375	70183.53617554101	70195.03617554101	70183.531501916	70195.030849208	11.5	1026.9	y	16.0	0	6	1	2	139	160	1000	1050	69889.498007333	69889.6780395	69889.84304925	69890.038216916	69890.233318708
70178.186175541	5.35	0	70178.936175541	5.3452458339888835	0.352353000009316	70195.036107166	70183.531421375	70183.53617554101	70195.03617554101	70183.531501916	70195.030849208	11.5	1012.93	y	16.0	0	6	1	2	139	160	1000	1050	69889.498007333	69889.6780395	69889.84304925	69890.038216916	69890.233318708
70178.186175541	5.35	0	70179.686175541	5.3452458339888835	0.352353000009316	70195.036107166	70183.531421375	70183.53617554101	70195.03617554101	70183.531501916	70195.030849208	11.5	1018.66	y	16.0	0	6	1	2	139	160	1000	1050	69889.498007333	69889.6780395	69889.84304925	69890.038216916	69890.233318708
70178.186175541	5.35	0	70180.436175541	5.3452458339888835	0.352353000009316	70195.036107166	70183.531421375	70183.53617554101	70195.03617554101	70183.531501916	70195.030849208	11.5	1020.19	y	16.0	0	6	1	2	139	160	1000	1050	69889.498007333	69889.6780395	69889.84304925	69890.038216916	69890.233318708
70178.186175541	5.35	0	70181.186175541	5.3452458339888835	0.352353000009316	70195.036107166	70183.531421375	70183.53617554101	70195.03617554101	70183.531501916	70195.030849208	11.5	1030.7	y	16.0	0	6	1	2	139	160	1000	1050	69889.498007333	69889.6780395	69889.84304925	69890.038216916	69890.233318708
70178.186175541	5.35	0	70181.936175541	5.3452458339888835	0.352353000009316	70195.036107166	70183.531421375	70183.53617554101	70195.03617554101	70183.531501916	70195.030849208	11.5	1008.09	y	16.0	0	6	1	2	139	160	1000	1050	69889.498007333	69889.6780395	69889.84304925	69890.038216916	69890.233318708
70178.186175541	5.35	1	70182.686175541	5.3452458339888835	0.352353000009316	70195.036107166	70183.531421375	70183.53617554101	70195.03617554101	70183.531501916	70195.030849208	11.5	1126.33	y	16.0	0	6	1	2	139	160	1000	1050	69889.498007333	69889.6780395	69889.84304925	69890.038216916	69890.233318708
70178.186175541	5.35	0	70183.436175541	5.3452458339888835	0.352353000009316	70195.036107166	70183.531421375	70183.53617554101	70195.03617554101	70183.531501916	70195.030849208	11.5	997.86	y	16.0	0	6	1	2	139	160	1000	1050	69889.498007333	69889.6780395	69889.84304925	69890.038216916	69890.233318708
70195.052044583	5.35	0	70195.052044583	5.34732408299169		70207.901991541	70200.399368666	70200.40204458301	70207.90204458301	70200.399457	70207.899311166	7.5	1008.63			3	3	0	2	140	160	1000	1050	69889.498007333	69889.6780395	69889.84304925	69890.038216916	69890.233318708
70195.052044583	5.35	0	70195.802044583	5.34732408299169		70207.901991541	70200.399368666	70200.40204458301	70207.90204458301	70200.399457	70207.899311166	7.5	1029.28			3	3	0	2	140	160	1000	1050	69889.498007333	69889.6780395	69889.84304925	69890.038216916	69890.233318708
70195.052044583	5.35	0	70196.552044583	5.34732408299169		70207.901991541	70200.399368666	70200.40204458301	70207.90204458301	70200.399457	70207.899311166	7.5	1023.5			3	3	0	2	140	160	1000	1050	69889.498007333	69889.6780395	69889.84304925	69890.038216916	69890.233318708
70195.052044583	5.35	1	70197.302044583	5.34732408299169		70207.901991541	70200.399368666	70200.40204458301	70207.90204458301	70200.399457	70207.899311166	7.5	1135.82			3	3	0	2	140	160	1000	1050	69889.498007333	69889.6780395	69889.84304925	69890.038216916	69890.233318708
70195.052044583	5.35	0	70198.052044583	5.34732408299169		70207.901991541	70200.399368666	70200.40204458301	70207.90204458301	70200.399457	70207.899311166	7.5	1043.5			3	3	0	2	140	160	1000	1050	69889.498007333	69889.6780395	69889.84304925	69890.038216916	69890.233318708
70195.052044583	5.35	0	70198.802044583	5.34732408299169		70207.901991541	70200.399368666	70200.40204458301	70207.90204458301	70200.399457	70207.899311166	7.5	1051.66			3	3	0	2	140	160	1000	1050	69889.498007333	69889.6780395	69889.84304925	69890.038216916	69890.233318708
70195.052044583	5.35	0	70199.552044583	5.34732408299169		70207.901991541	70200.399368666	70200.40204458301	70207.90204458301	70200.399457	70207.899311166	7.5	1060.07			3	3	0	2	140	160	1000	1050	69889.498007333	69889.6780395	69889.84304925	69890.038216916	69890.233318708
70195.052044583	5.35	0	70200.302044583	5.34732408299169		70207.901991541	70200.399368666	70200.40204458301	70207.90204458301	70200.399457	70207.899311166	7.5	1055.87			3	3	0	2	140	160	1000	1050	69889.498007333	69889.6780395	69889.84304925	69890.038216916	69890.233318708
70207.918866416	5.35	0	70207.918866416	5.347147209002287		70223.76880024999	70213.266013625	70213.26886641601	70223.76886641601	70213.266100875	70223.766030458	10.5	1040.65			3	4	0	2	141	160	1000	1050	69889.498007333	69889.6780395	69889.84304925	69890.038216916	69890.233318708
70207.918866416	5.35	0	70208.668866416	5.347147209002287		70223.76880024999	70213.266013625	70213.26886641601	70223.76886641601	70213.266100875	70223.766030458	10.5	1049.49			3	4	0	2	141	160	1000	1050	69889.498007333	69889.6780395	69889.84304925	69890.038216916	69890.233318708
70207.918866416	5.35	0	70209.418866416	5.347147209002287		70223.76880024999	70213.266013625	70213.26886641601	70223.76886641601	70213.266100875	70223.766030458	10.5	1051.55			3	4	0	2	141	160	1000	1050	69889.498007333	69889.6780395	69889.84304925	69890.038216916	69890.233318708
70207.918866416	5.35	0	70210.168866416	5.347147209002287		70223.76880024999	70213.266013625	70213.26886641601	70223.76886641601	70213.266100875	70223.766030458	10.5	1055.14			3	4	0	2	141	160	1000	1050	69889.498007333	69889.6780395	69889.84304925	69890.038216916	69890.233318708
70207.918866416	5.35	1	70210.918866416	5.347147209002287		70223.76880024999	70213.266013625	70213.26886641601	70223.76886641601	70213.266100875	70223.766030458	10.5	1144.41			3	4	0	2	141	160	1000	1050	69889.498007333	69889.6780395	69889.84304925	69890.038216916	69890.233318708
70207.918866416	5.35	0	70211.668866416	5.347147209002287		70223.76880024999	70213.266013625	70213.26886641601	70223.76886641601	70213.266100875	70223.766030458	10.5	1025.97			3	4	0	2	141	160	1000	1050	69889.498007333	69889.6780395	69889.84304925	69890.038216916	69890.233318708
70207.918866416	5.35	0	70212.418866416	5.347147209002287		70223.76880024999	70213.266013625	70213.26886641601	70223.76886641601	70213.266100875	70223.766030458	10.5	1056.97			3	4	0	2	141	160	1000	1050	69889.498007333	69889.6780395	69889.84304925	69890.038216916	69890.233318708
70207.918866416	5.35	0	70213.168866416	5.347147209002287		70223.76880024999	70213.266013625	70213.26886641601	70223.76886641601	70213.266100875	70223.766030458	10.5	1055.04			3	4	0	2	141	160	1000	1050	69889.498007333	69889.6780395	69889.84304925	69890.038216916	69890.233318708
70223.78567520801	5.35	0	70223.78567520801	5.345435416995315		70237.135619875	70229.131110625	70229.13567520802	70237.13567520802	70229.131180375	70237.132690333	8.0	1036.29			3	2	0	2	142	160	1000	1050	69889.498007333	69889.6780395	69889.84304925	69890.038216916	69890.233318708
70223.78567520801	5.35	0	70224.53567520801	5.345435416995315		70237.135619875	70229.131110625	70229.13567520802	70237.13567520802	70229.131180375	70237.132690333	8.0	1017.85			3	2	0	2	142	160	1000	1050	69889.498007333	69889.6780395	69889.84304925	69890.038216916	69890.233318708
70223.78567520801	5.35	1	70225.28567520801	5.345435416995315		70237.135619875	70229.131110625	70229.13567520802	70237.13567520802	70229.131180375	70237.132690333	8.0	1125.39			3	2	0	2	142	160	1000	1050	69889.498007333	69889.6780395	69889.84304925	69890.038216916	69890.233318708
70223.78567520801	5.35	0	70226.03567520801	5.345435416995315		70237.135619875	70229.131110625	70229.13567520802	70237.13567520802	70229.131180375	70237.132690333	8.0	1043.47			3	2	0	2	142	160	1000	1050	69889.498007333	69889.6780395	69889.84304925	69890.038216916	69890.233318708
70223.78567520801	5.35	0	70226.78567520801	5.345435416995315		70237.135619875	70229.131110625	70229.13567520802	70237.13567520802	70229.131180375	70237.132690333	8.0	1016.75			3	2	0	2	142	160	1000	1050	69889.498007333	69889.6780395	69889.84304925	69890.038216916	69890.233318708
70223.78567520801	5.35	0	70227.53567520801	5.345435416995315		70237.135619875	70229.131110625	70229.13567520802	70237.13567520802	70229.131180375	70237.132690333	8.0	1012.97			3	2	0	2	142	160	1000	1050	69889.498007333	69889.6780395	69889.84304925	69890.038216916	69890.233318708
70223.78567520801	5.35	0	70228.28567520801	5.345435416995315		70237.135619875	70229.131110625	70229.13567520802	70237.13567520802	70229.131180375	70237.132690333	8.0	1003.71			3	2	0	2	142	160	1000	1050	69889.498007333	69889.6780395	69889.84304925	69890.038216916	69890.233318708
70223.78567520801	5.35	0	70229.03567520801	5.345435416995315		70237.135619875	70229.131110625	70229.13567520802	70237.13567520802	70229.131180375	70237.132690333	8.0	1031.32			3	2	0	2	142	160	1000	1050	69889.498007333	69889.6780395	69889.84304925	69890.038216916	69890.233318708
70237.152182291	5.35	0	70237.152182291	5.347148250002647		70251.00212545799	70242.499330541	70242.502182291	70251.002182291	70242.499422416	70250.997494833	8.5	1022.94			4	0	2	2	143	160	1000	1050	69889.498007333	69889.6780395	69889.84304925	69890.038216916	69890.233318708
70237.152182291	5.35	0	70237.902182291	5.347148250002647		70251.00212545799	70242.499330541	70242.502182291	70251.002182291	70242.499422416	70250.997494833	8.5	1021.4			4	0	2	2	143	160	1000	1050	69889.498007333	69889.6780395	69889.84304925	69890.038216916	69890.233318708
70237.152182291	5.35	0	70238.652182291	5.347148250002647		70251.00212545799	70242.499330541	70242.502182291	70251.002182291	70242.499422416	70250.997494833	8.5	1018.22			4	0	2	2	143	160	1000	1050	69889.498007333	69889.6780395	69889.84304925	69890.038216916	69890.233318708
70237.152182291	5.35	0	70239.402182291	5.347148250002647		70251.00212545799	70242.499330541	70242.502182291	70251.002182291	70242.499422416	70250.997494833	8.5	1025.25			4	0	2	2	143	160	1000	1050	69889.498007333	69889.6780395	69889.84304925	69890.038216916	69890.233318708
70237.152182291	5.35	0	70240.152182291	5.347148250002647		70251.00212545799	70242.499330541	70242.502182291	70251.002182291	70242.499422416	70250.997494833	8.5	1010.18			4	0	2	2	143	160	1000	1050	69889.498007333	69889.6780395	69889.84304925	69890.038216916	69890.233318708
70237.152182291	5.35	0	70240.902182291	5.347148250002647		70251.00212545799	70242.499330541	70242.502182291	70251.002182291	70242.499422416	70250.997494833	8.5	1006.14			4	0	2	2	143	160	1000	1050	69889.498007333	69889.6780395	69889.84304925	69890.038216916	69890.233318708
70237.152182291	5.35	0	70241.652182291	5.347148250002647		70251.00212545799	70242.499330541	70242.502182291	70251.002182291	70242.499422416	70250.997494833	8.5	984.26			4	0	2	2	143	160	1000	1050	69889.498007333	69889.6780395	69889.84304925	69890.038216916	69890.233318708
70237.152182291	5.35	0	70242.402182291	5.347148250002647		70251.00212545799	70242.499330541	70242.502182291	70251.002182291	70242.499422416	70250.997494833	8.5	1007.34			4	0	2	2	143	160	1000	1050	69889.498007333	69889.6780395	69889.84304925	69890.038216916	69890.233318708
70251.017125375	5.35	0	70251.017125375	5.3485326249938225		70263.367074416	70256.365658	70256.367125375	70263.367125375	70256.365733583	70263.365675791	7.0	1017.89			3	2	0	2	144	160	1000	1050	69889.498007333	69889.6780395	69889.84304925	69890.038216916	69890.233318708
70251.017125375	5.35	0	70251.767125375	5.3485326249938225		70263.367074416	70256.365658	70256.367125375	70263.367125375	70256.365733583	70263.365675791	7.0	1021.86			3	2	0	2	144	160	1000	1050	69889.498007333	69889.6780395	69889.84304925	69890.038216916	69890.233318708
70251.017125375	5.35	1	70252.517125375	5.3485326249938225		70263.367074416	70256.365658	70256.367125375	70263.367125375	70256.365733583	70263.365675791	7.0	1094.66			3	2	0	2	144	160	1000	1050	69889.498007333	69889.6780395	69889.84304925	69890.038216916	69890.233318708
70251.017125375	5.35	0	70253.267125375	5.3485326249938225		70263.367074416	70256.365658	70256.367125375	70263.367125375	70256.365733583	70263.365675791	7.0	1029.54			3	2	0	2	144	160	1000	1050	69889.498007333	69889.6780395	69889.84304925	69890.038216916	69890.233318708
70251.017125375	5.35	0	70254.017125375	5.3485326249938225		70263.367074416	70256.365658	70256.367125375	70263.367125375	70256.365733583	70263.365675791	7.0	1028.24			3	2	0	2	144	160	1000	1050	69889.498007333	69889.6780395	69889.84304925	69890.038216916	69890.233318708
70251.017125375	5.35	0	70254.767125375	5.3485326249938225		70263.367074416	70256.365658	70256.367125375	70263.367125375	70256.365733583	70263.365675791	7.0	1013.38			3	2	0	2	144	160	1000	1050	69889.498007333	69889.6780395	69889.84304925	69890.038216916	69890.233318708
70251.017125375	5.35	0	70255.517125375	5.3485326249938225		70263.367074416	70256.365658	70256.367125375	70263.367125375	70256.365733583	70263.365675791	7.0	1013.35			3	2	0	2	144	160	1000	1050	69889.498007333	69889.6780395	69889.84304925	69890.038216916	69890.233318708
70251.017125375	5.35	0	70256.267125375	5.3485326249938225		70263.367074416	70256.365658	70256.367125375	70263.367125375	70256.365733583	70263.365675791	7.0	978.47			3	2	0	2	144	160	1000	1050	69889.498007333	69889.6780395	69889.84304925	69890.038216916	69890.233318708
70263.38488683301	5.35	0	70263.38488683301	5.347816582987434		70276.734832791	70268.732703416	70268.73488683302	70276.73488683302	70268.732791208	70276.730754375	8.0	978.52			3	3	0	2	145	160	1000	1050	69889.498007333	69889.6780395	69889.84304925	69890.038216916	69890.233318708
70263.38488683301	5.35	0	70264.13488683301	5.347816582987434		70276.734832791	70268.732703416	70268.73488683302	70276.73488683302	70268.732791208	70276.730754375	8.0	982.96			3	3	0	2	145	160	1000	1050	69889.498007333	69889.6780395	69889.84304925	69890.038216916	69890.233318708
70263.38488683301	5.35	0	70264.88488683301	5.347816582987434		70276.734832791	70268.732703416	70268.73488683302	70276.73488683302	70268.732791208	70276.730754375	8.0	993.91			3	3	0	2	145	160	1000	1050	69889.498007333	69889.6780395	69889.84304925	69890.038216916	69890.233318708
70263.38488683301	5.35	1	70265.63488683301	5.347816582987434		70276.734832791	70268.732703416	70268.73488683302	70276.73488683302	70268.732791208	70276.730754375	8.0	1082.64			3	3	0	2	145	160	1000	1050	69889.498007333	69889.6780395	69889.84304925	69890.038216916	69890.233318708
70263.38488683301	5.35	0	70266.38488683301	5.347816582987434		70276.734832791	70268.732703416	70268.73488683302	70276.73488683302	70268.732791208	70276.730754375	8.0	1001.08			3	3	0	2	145	160	1000	1050	69889.498007333	69889.6780395	69889.84304925	69890.038216916	69890.233318708
70263.38488683301	5.35	0	70267.13488683301	5.347816582987434		70276.734832791	70268.732703416	70268.73488683302	70276.73488683302	70268.732791208	70276.730754375	8.0	1006.78			3	3	0	2	145	160	1000	1050	69889.498007333	69889.6780395	69889.84304925	69890.038216916	69890.233318708
70263.38488683301	5.35	0	70267.88488683301	5.347816582987434		70276.734832791	70268.732703416	70268.73488683302	70276.73488683302	70268.732791208	70276.730754375	8.0	988.43			3	3	0	2	145	160	1000	1050	69889.498007333	69889.6780395	69889.84304925	69890.038216916	69890.233318708
70263.38488683301	5.35	0	70268.63488683301	5.347816582987434		70276.734832791	70268.732703416	70268.73488683302	70276.73488683302	70268.732791208	70276.730754375	8.0	997.75			3	3	0	2	145	160	1000	1050	69889.498007333	69889.6780395	69889.84304925	69890.038216916	69890.233318708
70276.75233275001	5.35	0	70276.75233275001	5.345384582993574		70293.102265958	70282.097717333	70282.10233275002	70293.10233275002	70282.097788625	70293.097344833	11.0	1031.77			3	3	0	2	146	160	1000	1050	69889.498007333	69889.6780395	69889.84304925	69890.038216916	69890.233318708
70276.75233275001	5.35	0	70277.50233275001	5.345384582993574		70293.102265958	70282.097717333	70282.10233275002	70293.10233275002	70282.097788625	70293.097344833	11.0	1039.24			3	3	0	2	146	160	1000	1050	69889.498007333	69889.6780395	69889.84304925	69890.038216916	69890.233318708
70276.75233275001	5.35	0	70278.25233275001	5.345384582993574		70293.102265958	70282.097717333	70282.10233275002	70293.10233275002	70282.097788625	70293.097344833	11.0	1061.76			3	3	0	2	146	160	1000	1050	69889.498007333	69889.6780395	69889.84304925	69890.038216916	69890.233318708
70276.75233275001	5.35	1	70279.00233275001	5.345384582993574		70293.102265958	70282.097717333	70282.10233275002	70293.10233275002	70282.097788625	70293.097344833	11.0	1100.17			3	3	0	2	146	160	1000	1050	69889.498007333	69889.6780395	69889.84304925	69890.038216916	69890.233318708
70276.75233275001	5.35	0	70279.75233275001	5.345384582993574		70293.102265958	70282.097717333	70282.10233275002	70293.10233275002	70282.097788625	70293.097344833	11.0	1045.69			3	3	0	2	146	160	1000	1050	69889.498007333	69889.6780395	69889.84304925	69890.038216916	69890.233318708
70276.75233275001	5.35	0	70280.50233275001	5.345384582993574		70293.102265958	70282.097717333	70282.10233275002	70293.10233275002	70282.097788625	70293.097344833	11.0	1080.2			3	3	0	2	146	160	1000	1050	69889.498007333	69889.6780395	69889.84304925	69890.038216916	69890.233318708
70276.75233275001	5.35	0	70281.25233275001	5.345384582993574		70293.102265958	70282.097717333	70282.10233275002	70293.10233275002	70282.097788625	70293.097344833	11.0	1074.07			3	3	0	2	146	160	1000	1050	69889.498007333	69889.6780395	69889.84304925	69890.038216916	69890.233318708
70276.75233275001	5.35	0	70282.00233275001	5.345384582993574		70293.102265958	70282.097717333	70282.10233275002	70293.10233275002	70282.097788625	70293.097344833	11.0	1068.26			3	3	0	2	146	160	1000	1050	69889.498007333	69889.6780395	69889.84304925	69890.038216916	69890.233318708
70293.117265875	5.35	0	70293.117265875	5.34835854099947		70307.967204666	70298.465624416	70298.467265875	70307.967265875	70298.465703833	70307.965762083	9.5	1048.02			3	4	0	2	147	160	1000	1050	69889.498007333	69889.6780395	69889.84304925	69890.038216916	69890.233318708
70293.117265875	5.35	0	70293.867265875	5.34835854099947		70307.967204666	70298.465624416	70298.467265875	70307.967265875	70298.465703833	70307.965762083	9.5	1068.79			3	4	0	2	147	160	1000	1050	69889.498007333	69889.6780395	69889.84304925	69890.038216916	69890.233318708
70293.117265875	5.35	0	70294.617265875	5.34835854099947		70307.967204666	70298.465624416	70298.467265875	70307.967265875	70298.465703833	70307.965762083	9.5	1099.65			3	4	0	2	147	160	1000	1050	69889.498007333	69889.6780395	69889.84304925	69890.038216916	69890.233318708
70293.117265875	5.35	0	70295.367265875	5.34835854099947		70307.967204666	70298.465624416	70298.467265875	70307.967265875	70298.465703833	70307.965762083	9.5	1080.27			3	4	0	2	147	160	1000	1050	69889.498007333	69889.6780395	69889.84304925	69890.038216916	69890.233318708
70293.117265875	5.35	1	70296.117265875	5.34835854099947		70307.967204666	70298.465624416	70298.467265875	70307.967265875	70298.465703833	70307.965762083	9.5	1092.78			3	4	0	2	147	160	1000	1050	69889.498007333	69889.6780395	69889.84304925	69890.038216916	69890.233318708
70293.117265875	5.35	0	70296.867265875	5.34835854099947		70307.967204666	70298.465624416	70298.467265875	70307.967265875	70298.465703833	70307.965762083	9.5	1062.86			3	4	0	2	147	160	1000	1050	69889.498007333	69889.6780395	69889.84304925	69890.038216916	69890.233318708
70293.117265875	5.35	0	70297.617265875	5.34835854099947		70307.967204666	70298.465624416	70298.467265875	70307.967265875	70298.465703833	70307.965762083	9.5	1073.06			3	4	0	2	147	160	1000	1050	69889.498007333	69889.6780395	69889.84304925	69890.038216916	69890.233318708
70293.117265875	5.35	0	70298.367265875	5.34835854099947		70307.967204666	70298.465624416	70298.467265875	70307.967265875	70298.465703833	70307.965762083	9.5	1061.92			3	4	0	2	147	160	1000	1050	69889.498007333	69889.6780395	69889.84304925	69890.038216916	69890.233318708
70307.985017083	5.35	0	70307.985017083	5.347167332991376		70324.334950875	70313.332184416	70313.33501708301	70324.33501708301	70313.332272541	70324.33081825	11.0	1064.46			3	3	0	2	148	160	1000	1050	69889.498007333	69889.6780395	69889.84304925	69890.038216916	69890.233318708
70307.985017083	5.35	0	70308.735017083	5.347167332991376		70324.334950875	70313.332184416	70313.33501708301	70324.33501708301	70313.332272541	70324.33081825	11.0	1083.22			3	3	0	2	148	160	1000	1050	69889.498007333	69889.6780395	69889.84304925	69890.038216916	69890.233318708
70307.985017083	5.35	0	70309.485017083	5.347167332991376		70324.334950875	70313.332184416	70313.33501708301	70324.33501708301	70313.332272541	70324.33081825	11.0	1081.56			3	3	0	2	148	160	1000	1050	69889.498007333	69889.6780395	69889.84304925	69890.038216916	69890.233318708
70307.985017083	5.35	1	70310.235017083	5.347167332991376		70324.334950875	70313.332184416	70313.33501708301	70324.33501708301	70313.332272541	70324.33081825	11.0	1093.64			3	3	0	2	148	160	1000	1050	69889.498007333	69889.6780395	69889.84304925	69890.038216916	69890.233318708
70307.985017083	5.35	0	70310.985017083	5.347167332991376		70324.334950875	70313.332184416	70313.33501708301	70324.33501708301	70313.332272541	70324.33081825	11.0	1076.06			3	3	0	2	148	160	1000	1050	69889.498007333	69889.6780395	69889.84304925	69890.038216916	69890.233318708
70307.985017083	5.35	0	70311.735017083	5.347167332991376		70324.334950875	70313.332184416	70313.33501708301	70324.33501708301	70313.332272541	70324.33081825	11.0	1088.4			3	3	0	2	148	160	1000	1050	69889.498007333	69889.6780395	69889.84304925	69890.038216916	69890.233318708
70307.985017083	5.35	0	70312.485017083	5.347167332991376		70324.334950875	70313.332184416	70313.33501708301	70324.33501708301	70313.332272541	70324.33081825	11.0	1083.83			3	3	0	2	148	160	1000	1050	69889.498007333	69889.6780395	69889.84304925	69890.038216916	69890.233318708
70307.985017083	5.35	0	70313.235017083	5.347167332991376		70324.334950875	70313.332184416	70313.33501708301	70324.33501708301	70313.332272541	70324.33081825	11.0	1070.7			3	3	0	2	148	160	1000	1050	69889.498007333	69889.6780395	69889.84304925	69890.038216916	69890.233318708
70324.35213833301	5.35	0	70324.35213833301	5.346611749992007		70337.202084666	70329.698750083	70329.70213833301	70337.20213833301	70329.698836875	70337.197307458	7.5	1065.21			3	3	0	2	149	160	1000	1050	69889.498007333	69889.6780395	69889.84304925	69890.038216916	69890.233318708
70324.35213833301	5.35	0	70325.10213833301	5.346611749992007		70337.202084666	70329.698750083	70329.70213833301	70337.20213833301	70329.698836875	70337.197307458	7.5	1063.48			3	3	0	2	149	160	1000	1050	69889.498007333	69889.6780395	69889.84304925	69890.038216916	69890.233318708
70324.35213833301	5.35	0	70325.85213833301	5.346611749992007		70337.202084666	70329.698750083	70329.70213833301	70337.20213833301	70329.698836875	70337.197307458	7.5	1044.62			3	3	0	2	149	160	1000	1050	69889.498007333	69889.6780395	69889.84304925	69890.038216916	69890.233318708
70324.35213833301	5.35	1	70326.60213833301	5.346611749992007		70337.202084666	70329.698750083	70329.70213833301	70337.20213833301	70329.698836875	70337.197307458	7.5	1099.45			3	3	0	2	149	160	1000	1050	69889.498007333	69889.6780395	69889.84304925	69890.038216916	69890.233318708
70324.35213833301	5.35	0	70327.35213833301	5.346611749992007		70337.202084666	70329.698750083	70329.70213833301	70337.20213833301	70329.698836875	70337.197307458	7.5	1017.01			3	3	0	2	149	160	1000	1050	69889.498007333	69889.6780395	69889.84304925	69890.038216916	69890.233318708
70324.35213833301	5.35	0	70328.10213833301	5.346611749992007		70337.202084666	70329.698750083	70329.70213833301	70337.20213833301	70329.698836875	70337.197307458	7.5	1011.51			3	3	0	2	149	160	1000	1050	69889.498007333	69889.6780395	69889.84304925	69890.038216916	69890.233318708
70324.35213833301	5.35	0	70328.85213833301	5.346611749992007		70337.202084666	70329.698750083	70329.70213833301	70337.20213833301	70329.698836875	70337.197307458	7.5	1023.07			3	3	0	2	149	160	1000	1050	69889.498007333	69889.6780395	69889.84304925	69890.038216916	69890.233318708
70324.35213833301	5.35	0	70329.60213833301	5.346611749992007		70337.202084666	70329.698750083	70329.70213833301	70337.20213833301	70329.698836875	70337.197307458	7.5	978.72			3	3	0	2	149	160	1000	1050	69889.498007333	69889.6780395	69889.84304925	69890.038216916	69890.233318708
70337.218647083	5.35	0	70337.218647083	5.346557749988278		70351.068589208	70342.565204833	70342.56864708301	70351.06864708301	70342.565276666	70351.063916666	8.5	992.8			3	6	1	2	150	160	1000	1050	69889.498007333	69889.6780395	69889.84304925	69890.038216916	69890.233318708
70337.218647083	5.35	0	70337.968647083	5.346557749988278		70351.068589208	70342.565204833	70342.56864708301	70351.06864708301	70342.565276666	70351.063916666	8.5	1012.94			3	6	1	2	150	160	1000	1050	69889.498007333	69889.6780395	69889.84304925	69890.038216916	69890.233318708
70337.218647083	5.35	0	70338.718647083	5.346557749988278		70351.068589208	70342.565204833	70342.56864708301	70351.06864708301	70342.565276666	70351.063916666	8.5	1023.57			3	6	1	2	150	160	1000	1050	69889.498007333	69889.6780395	69889.84304925	69890.038216916	69890.233318708
70337.218647083	5.35	0	70339.468647083	5.346557749988278		70351.068589208	70342.565204833	70342.56864708301	70351.06864708301	70342.565276666	70351.063916666	8.5	1007.58			3	6	1	2	150	160	1000	1050	69889.498007333	69889.6780395	69889.84304925	69890.038216916	69890.233318708
70337.218647083	5.35	0	70340.218647083	5.346557749988278		70351.068589208	70342.565204833	70342.56864708301	70351.06864708301	70342.565276666	70351.063916666	8.5	1012.21			3	6	1	2	150	160	1000	1050	69889.498007333	69889.6780395	69889.84304925	69890.038216916	69890.233318708
70337.218647083	5.35	0	70340.968647083	5.346557749988278		70351.068589208	70342.565204833	70342.56864708301	70351.06864708301	70342.565276666	70351.063916666	8.5	1013.1			3	6	1	2	150	160	1000	1050	69889.498007333	69889.6780395	69889.84304925	69890.038216916	69890.233318708
70337.218647083	5.35	1	70341.718647083	5.346557749988278		70351.068589208	70342.565204833	70342.56864708301	70351.06864708301	70342.565276666	70351.063916666	8.5	1091.72			3	6	1	2	150	160	1000	1050	69889.498007333	69889.6780395	69889.84304925	69890.038216916	69890.233318708
70337.218647083	5.35	0	70342.468647083	5.346557749988278		70351.068589208	70342.565204833	70342.56864708301	70351.06864708301	70342.565276666	70351.063916666	8.5	1016.47			3	6	1	2	150	160	1000	1050	69889.498007333	69889.6780395	69889.84304925	69890.038216916	69890.233318708
70351.08327662501	5.35	0	70351.08327662501	5.347533874984947		70366.93320925	70356.4308105	70356.43327662502	70366.93327662502	70356.4308875	70366.932921666	10.5	987.05			3	5	1	2	151	160	1000	1050	69889.498007333	69889.6780395	69889.84304925	69890.038216916	69890.233318708
70351.08327662501	5.35	0	70351.83327662501	5.347533874984947		70366.93320925	70356.4308105	70356.43327662502	70366.93327662502	70356.4308875	70366.932921666	10.5	987.83			3	5	1	2	151	160	1000	1050	69889.498007333	69889.6780395	69889.84304925	69890.038216916	69890.233318708
70351.08327662501	5.35	0	70352.58327662501	5.347533874984947		70366.93320925	70356.4308105	70356.43327662502	70366.93327662502	70356.4308875	70366.932921666	10.5	982.04			3	5	1	2	151	160	1000	1050	69889.498007333	69889.6780395	69889.84304925	69890.038216916	69890.233318708
70351.08327662501	5.35	0	70353.33327662501	5.347533874984947		70366.93320925	70356.4308105	70356.43327662502	70366.93327662502	70356.4308875	70366.932921666	10.5	993.11			3	5	1	2	151	160	1000	1050	69889.498007333	69889.6780395	69889.84304925	69890.038216916	69890.233318708
70351.08327662501	5.35	0	70354.08327662501	5.347533874984947		70366.93320925	70356.4308105	70356.43327662502	70366.93327662502	70356.4308875	70366.932921666	10.5	993.48			3	5	1	2	151	160	1000	1050	69889.498007333	69889.6780395	69889.84304925	69890.038216916	69890.233318708
70351.08327662501	5.35	1	70354.83327662501	5.347533874984947		70366.93320925	70356.4308105	70356.43327662502	70366.93327662502	70356.4308875	70366.932921666	10.5	1100.29			3	5	1	2	151	160	1000	1050	69889.498007333	69889.6780395	69889.84304925	69890.038216916	69890.233318708
70351.08327662501	5.35	0	70355.58327662501	5.347533874984947		70366.93320925	70356.4308105	70356.43327662502	70366.93327662502	70356.4308875	70366.932921666	10.5	994.93			3	5	1	2	151	160	1000	1050	69889.498007333	69889.6780395	69889.84304925	69890.038216916	69890.233318708
70351.08327662501	5.35	0	70356.33327662501	5.347533874984947		70366.93320925	70356.4308105	70356.43327662502	70366.93327662502	70356.4308875	70366.932921666	10.5	1008.45			3	5	1	2	151	160	1000	1050	69889.498007333	69889.6780395	69889.84304925	69890.038216916	69890.233318708
70366.95320916601	5.35	0	70366.95320916601	5.344013791996986		70380.303153583	70372.297222958	70372.30320916601	70380.30320916601	70372.297305916	70380.298220208	8.0	1004.9			3	5	1	2	152	160	1000	1050	69889.498007333	69889.6780395	69889.84304925	69890.038216916	69890.233318708
70366.95320916601	5.35	0	70367.70320916601	5.344013791996986		70380.303153583	70372.297222958	70372.30320916601	70380.30320916601	70372.297305916	70380.298220208	8.0	1008.93			3	5	1	2	152	160	1000	1050	69889.498007333	69889.6780395	69889.84304925	69890.038216916	69890.233318708
70366.95320916601	5.35	0	70368.45320916601	5.344013791996986		70380.303153583	70372.297222958	70372.30320916601	70380.30320916601	70372.297305916	70380.298220208	8.0	981.22			3	5	1	2	152	160	1000	1050	69889.498007333	69889.6780395	69889.84304925	69890.038216916	69890.233318708
70366.95320916601	5.35	0	70369.20320916601	5.344013791996986		70380.303153583	70372.297222958	70372.30320916601	70380.30320916601	70372.297305916	70380.298220208	8.0	1026.61			3	5	1	2	152	160	1000	1050	69889.498007333	69889.6780395	69889.84304925	69890.038216916	69890.233318708
70366.95320916601	5.35	0	70369.95320916601	5.344013791996986		70380.303153583	70372.297222958	70372.30320916601	70380.30320916601	70372.297305916	70380.298220208	8.0	1008.29			3	5	1	2	152	160	1000	1050	69889.498007333	69889.6780395	69889.84304925	69890.038216916	69890.233318708
70366.95320916601	5.35	1	70370.70320916601	5.344013791996986		70380.303153583	70372.297222958	70372.30320916601	70380.30320916601	70372.297305916	70380.298220208	8.0	1066.74			3	5	1	2	152	160	1000	1050	69889.498007333	69889.6780395	69889.84304925	69890.038216916	69890.233318708
70366.95320916601	5.35	0	70371.45320916601	5.344013791996986		70380.303153583	70372.297222958	70372.30320916601	70380.30320916601	70372.297305916	70380.298220208	8.0	978.36			3	5	1	2	152	160	1000	1050	69889.498007333	69889.6780395	69889.84304925	69890.038216916	69890.233318708
70366.95320916601	5.35	0	70372.20320916601	5.344013791996986		70380.303153583	70372.297222958	70372.30320916601	70380.30320916601	70372.297305916	70380.298220208	8.0	988.16			3	5	1	2	152	160	1000	1050	69889.498007333	69889.6780395	69889.84304925	69890.038216916	69890.233318708
70380.31815354101	5.35	0	70380.31815354101	5.34730833399226		70397.168083208	70385.665461875	70385.66815354102	70397.16815354102	70385.665552916	70397.164904291	11.5	989.95			3	5	1	2	153	160	1000	1050	69889.498007333	69889.6780395	69889.84304925	69890.038216916	69890.233318708
70380.31815354101	5.35	0	70381.06815354101	5.34730833399226		70397.168083208	70385.665461875	70385.66815354102	70397.16815354102	70385.665552916	70397.164904291	11.5	998.87			3	5	1	2	153	160	1000	1050	69889.498007333	69889.6780395	69889.84304925	69890.038216916	69890.233318708
70380.31815354101	5.35	0	70381.81815354101	5.34730833399226		70397.168083208	70385.665461875	70385.66815354102	70397.16815354102	70385.665552916	70397.164904291	11.5	997.33			3	5	1	2	153	160	1000	1050	69889.498007333	69889.6780395	69889.84304925	69890.038216916	69890.233318708
70380.31815354101	5.35	0	70382.56815354101	5.34730833399226		70397.168083208	70385.665461875	70385.66815354102	70397.16815354102	70385.665552916	70397.164904291	11.5	979.53			3	5	1	2	153	160	1000	1050	69889.498007333	69889.6780395	69889.84304925	69890.038216916	69890.233318708
70380.31815354101	5.35	0	70383.31815354101	5.34730833399226		70397.168083208	70385.665461875	70385.66815354102	70397.16815354102	70385.665552916	70397.164904291	11.5	1006.13			3	5	1	2	153	160	1000	1050	69889.498007333	69889.6780395	69889.84304925	69890.038216916	69890.233318708
70380.31815354101	5.35	1	70384.06815354101	5.34730833399226		70397.168083208	70385.665461875	70385.66815354102	70397.16815354102	70385.665552916	70397.164904291	11.5	1082.31			3	5	1	2	153	160	1000	1050	69889.498007333	69889.6780395	69889.84304925	69890.038216916	69890.233318708
70380.31815354101	5.35	0	70384.81815354101	5.34730833399226		70397.168083208	70385.665461875	70385.66815354102	70397.16815354102	70385.665552916	70397.164904291	11.5	1006.68			3	5	1	2	153	160	1000	1050	69889.498007333	69889.6780395	69889.84304925	69890.038216916	69890.233318708
70380.31815354101	5.35	0	70385.56815354101	5.34730833399226		70397.168083208	70385.665461875	70385.66815354102	70397.16815354102	70385.665552916	70397.164904291	11.5	1004.21			3	5	1	2	153	160	1000	1050	69889.498007333	69889.6780395	69889.84304925	69890.038216916	69890.233318708
70397.184645666	5.35	0	70397.184645666	5.345594500002335		70410.034592	70402.530240166	70402.534645666	70410.034645666	70402.530305166	70410.031619958	7.5	1009.0			3	3	0	2	154	160	1000	1050	69889.498007333	69889.6780395	69889.84304925	69890.038216916	69890.233318708
70397.184645666	5.35	0	70397.934645666	5.345594500002335		70410.034592	70402.530240166	70402.534645666	70410.034645666	70402.530305166	70410.031619958	7.5	1000.7			3	3	0	2	154	160	1000	1050	69889.498007333	69889.6780395	69889.84304925	69890.038216916	69890.233318708
70397.184645666	5.35	0	70398.684645666	5.345594500002335		70410.034592	70402.530240166	70402.534645666	70410.034645666	70402.530305166	70410.031619958	7.5	984.8			3	3	0	2	154	160	1000	1050	69889.498007333	69889.6780395	69889.84304925	69890.038216916	69890.233318708
70397.184645666	5.35	1	70399.434645666	5.345594500002335		70410.034592	70402.530240166	70402.534645666	70410.034645666	70402.530305166	70410.031619958	7.5	1084.95			3	3	0	2	154	160	1000	1050	69889.498007333	69889.6780395	69889.84304925	69890.038216916	69890.233318708
70397.184645666	5.35	0	70400.184645666	5.345594500002335		70410.034592	70402.530240166	70402.534645666	70410.034645666	70402.530305166	70410.031619958	7.5	981.41			3	3	0	2	154	160	1000	1050	69889.498007333	69889.6780395	69889.84304925	69890.038216916	69890.233318708
70397.184645666	5.35	0	70400.934645666	5.345594500002335		70410.034592	70402.530240166	70402.534645666	70410.034645666	70402.530305166	70410.031619958	7.5	1000.27			3	3	0	2	154	160	1000	1050	69889.498007333	69889.6780395	69889.84304925	69890.038216916	69890.233318708
70397.184645666	5.35	0	70401.684645666	5.345594500002335		70410.034592	70402.530240166	70402.534645666	70410.034645666	70402.530305166	70410.031619958	7.5	980.76			3	3	0	2	154	160	1000	1050	69889.498007333	69889.6780395	69889.84304925	69890.038216916	69890.233318708
70397.184645666	5.35	0	70402.434645666	5.345594500002335		70410.034592	70402.530240166	70402.534645666	70410.034645666	70402.530305166	70410.031619958	7.5	998.22			3	3	0	2	154	160	1000	1050	69889.498007333	69889.6780395	69889.84304925	69890.038216916	69890.233318708
70410.051466916	5.35	0	70410.051466916	5.345304249989567		70423.401411125	70415.396771166	70415.40146691601	70423.40146691601	70415.396840875	70423.39834725	8.0	988.87			3	2	0	2	155	160	1000	1050	69889.498007333	69889.6780395	69889.84304925	69890.038216916	69890.233318708
70410.051466916	5.35	0	70410.801466916	5.345304249989567		70423.401411125	70415.396771166	70415.40146691601	70423.40146691601	70415.396840875	70423.39834725	8.0	990.25			3	2	0	2	155	160	1000	1050	69889.498007333	69889.6780395	69889.84304925	69890.038216916	69890.233318708
70410.051466916	5.35	1	70411.551466916	5.345304249989567		70423.401411125	70415.396771166	70415.40146691601	70423.40146691601	70415.396840875	70423.39834725	8.0	1128.28			3	2	0	2	155	160	1000	1050	69889.498007333	69889.6780395	69889.84304925	69890.038216916	69890.233318708
70410.051466916	5.35	0	70412.301466916	5.345304249989567		70423.401411125	70415.396771166	70415.40146691601	70423.40146691601	70415.396840875	70423.39834725	8.0	1026.34			3	2	0	2	155	160	1000	1050	69889.498007333	69889.6780395	69889.84304925	69890.038216916	69890.233318708
70410.051466916	5.35	0	70413.051466916	5.345304249989567		70423.401411125	70415.396771166	70415.40146691601	70423.40146691601	70415.396840875	70423.39834725	8.0	1025.87			3	2	0	2	155	160	1000	1050	69889.498007333	69889.6780395	69889.84304925	69890.038216916	69890.233318708
70410.051466916	5.35	0	70413.801466916	5.345304249989567		70423.401411125	70415.396771166	70415.40146691601	70423.40146691601	70415.396840875	70423.39834725	8.0	1044.27			3	2	0	2	155	160	1000	1050	69889.498007333	69889.6780395	69889.84304925	69890.038216916	69890.233318708
70410.051466916	5.35	0	70414.551466916	5.345304249989567		70423.401411125	70415.396771166	70415.40146691601	70423.40146691601	70415.396840875	70423.39834725	8.0	1049.32			3	2	0	2	155	160	1000	1050	69889.498007333	69889.6780395	69889.84304925	69890.038216916	69890.233318708
70410.051466916	5.35	0	70415.301466916	5.345304249989567		70423.401411125	70415.396771166	70415.40146691601	70423.40146691601	70415.396840875	70423.39834725	8.0	1040.45			3	2	0	2	155	160	1000	1050	69889.498007333	69889.6780395	69889.84304925	69890.038216916	69890.233318708
70423.417973541	5.35	0	70423.417973541	5.347160624995013		70439.767904416	70428.765134166	70428.767973541	70439.767973541	70428.765223833	70439.765163666	11.0	1029.59			3	3	0	2	156	160	1000	1050	69889.498007333	69889.6780395	69889.84304925	69890.038216916	69890.233318708
70423.417973541	5.35	0	70424.167973541	5.347160624995013		70439.767904416	70428.765134166	70428.767973541	70439.767973541	70428.765223833	70439.765163666	11.0	1023.38			3	3	0	2	156	160	1000	1050	69889.498007333	69889.6780395	69889.84304925	69890.038216916	69890.233318708
70423.417973541	5.35	0	70424.917973541	5.347160624995013		70439.767904416	70428.765134166	70428.767973541	70439.767973541	70428.765223833	70439.765163666	11.0	1000.65			3	3	0	2	156	160	1000	1050	69889.498007333	69889.6780395	69889.84304925	69890.038216916	69890.233318708
70423.417973541	5.35	1	70425.667973541	5.347160624995013		70439.767904416	70428.765134166	70428.767973541	70439.767973541	70428.765223833	70439.765163666	11.0	1115.57			3	3	0	2	156	160	1000	1050	69889.498007333	69889.6780395	69889.84304925	69890.038216916	69890.233318708
70423.417973541	5.35	0	70426.417973541	5.347160624995013		70439.767904416	70428.765134166	70428.767973541	70439.767973541	70428.765223833	70439.765163666	11.0	1009.99			3	3	0	2	156	160	1000	1050	69889.498007333	69889.6780395	69889.84304925	69890.038216916	69890.233318708
70423.417973541	5.35	0	70427.167973541	5.347160624995013		70439.767904416	70428.765134166	70428.767973541	70439.767973541	70428.765223833	70439.765163666	11.0	1029.83			3	3	0	2	156	160	1000	1050	69889.498007333	69889.6780395	69889.84304925	69890.038216916	69890.233318708
70423.417973541	5.35	0	70427.917973541	5.347160624995013		70439.767904416	70428.765134166	70428.767973541	70439.767973541	70428.765223833	70439.765163666	11.0	1002.43			3	3	0	2	156	160	1000	1050	69889.498007333	69889.6780395	69889.84304925	69890.038216916	69890.233318708
70423.417973541	5.35	0	70428.667973541	5.347160624995013		70439.767904416	70428.765134166	70428.767973541	70439.767973541	70428.765223833	70439.765163666	11.0	1013.97			3	3	0	2	156	160	1000	1050	69889.498007333	69889.6780395	69889.84304925	69890.038216916	69890.233318708
70439.784466833	5.35	0	70439.784466833	5.34554358299647		70454.134406541	70445.130010416	70445.13446683301	70454.13446683301	70445.130086458	70454.129968583	9.0	1007.65			3	2	0	2	157	160	1000	1050	69889.498007333	69889.6780395	69889.84304925	69890.038216916	69890.233318708
70439.784466833	5.35	0	70440.534466833	5.34554358299647		70454.134406541	70445.130010416	70445.13446683301	70454.13446683301	70445.130086458	70454.129968583	9.0	1011.05			3	2	0	2	157	160	1000	1050	69889.498007333	69889.6780395	69889.84304925	69890.038216916	69890.233318708
70439.784466833	5.35	1	70441.284466833	5.34554358299647		70454.134406541	70445.130010416	70445.13446683301	70454.13446683301	70445.130086458	70454.129968583	9.0	1120.3			3	2	0	2	157	160	1000	1050	69889.498007333	69889.6780395	69889.84304925	69890.038216916	69890.233318708
70439.784466833	5.35	0	70442.034466833	5.34554358299647		70454.134406541	70445.130010416	70445.13446683301	70454.13446683301	70445.130086458	70454.129968583	9.0	995.76			3	2	0	2	157	160	1000	1050	69889.498007333	69889.6780395	69889.84304925	69890.038216916	69890.233318708
70439.784466833	5.35	0	70442.784466833	5.34554358299647		70454.134406541	70445.130010416	70445.13446683301	70454.13446683301	70445.130086458	70454.129968583	9.0	971.88			3	2	0	2	157	160	1000	1050	69889.498007333	69889.6780395	69889.84304925	69890.038216916	69890.233318708
70439.784466833	5.35	0	70443.534466833	5.34554358299647		70454.134406541	70445.130010416	70445.13446683301	70454.13446683301	70445.130086458	70454.129968583	9.0	981.75			3	2	0	2	157	160	1000	1050	69889.498007333	69889.6780395	69889.84304925	69890.038216916	69890.233318708
70439.784466833	5.35	0	70444.284466833	5.34554358299647		70454.134406541	70445.130010416	70445.13446683301	70454.13446683301	70445.130086458	70454.129968583	9.0	956.31			3	2	0	2	157	160	1000	1050	69889.498007333	69889.6780395	69889.84304925	69890.038216916	69890.233318708
70439.784466833	5.35	0	70445.034466833	5.34554358299647		70454.134406541	70445.130010416	70445.13446683301	70454.13446683301	70445.130086458	70454.129968583	9.0	961.19			3	2	0	2	157	160	1000	1050	69889.498007333	69889.6780395	69889.84304925	69890.038216916	69890.233318708
70454.151281458	5.35	0	70454.151281458	5.345839000001433		70467.00122675	70459.497120458	70459.50128145801	70467.00128145801	70459.497192	70466.99639525	7.5	983.63			3	2	0	2	158	160	1000	1050	69889.498007333	69889.6780395	69889.84304925	69890.038216916	69890.233318708
70454.151281458	5.35	0	70454.901281458	5.345839000001433		70467.00122675	70459.497120458	70459.50128145801	70467.00128145801	70459.497192	70466.99639525	7.5	981.09			3	2	0	2	158	160	1000	1050	69889.498007333	69889.6780395	69889.84304925	69890.038216916	69890.233318708
70454.151281458	5.35	1	70455.651281458	5.345839000001433		70467.00122675	70459.497120458	70459.50128145801	70467.00128145801	70459.497192	70466.99639525	7.5	1132.74			3	2	0	2	158	160	1000	1050	69889.498007333	69889.6780395	69889.84304925	69890.038216916	69890.233318708
70454.151281458	5.35	0	70456.401281458	5.345839000001433		70467.00122675	70459.497120458	70459.50128145801	70467.00128145801	70459.497192	70466.99639525	7.5	990.3			3	2	0	2	158	160	1000	1050	69889.498007333	69889.6780395	69889.84304925	69890.038216916	69890.233318708
70454.151281458	5.35	0	70457.151281458	5.345839000001433		70467.00122675	70459.497120458	70459.50128145801	70467.00128145801	70459.497192	70466.99639525	7.5	981.85			3	2	0	2	158	160	1000	1050	69889.498007333	69889.6780395	69889.84304925	69890.038216916	69890.233318708
70454.151281458	5.35	0	70457.901281458	5.345839000001433		70467.00122675	70459.497120458	70459.50128145801	70467.00128145801	70459.497192	70466.99639525	7.5	1001.26			3	2	0	2	158	160	1000	1050	69889.498007333	69889.6780395	69889.84304925	69890.038216916	69890.233318708
70454.151281458	5.35	0	70458.651281458	5.345839000001433		70467.00122675	70459.497120458	70459.50128145801	70467.00128145801	70459.497192	70466.99639525	7.5	993.64			3	2	0	2	158	160	1000	1050	69889.498007333	69889.6780395	69889.84304925	69890.038216916	69890.233318708
70454.151281458	5.35	0	70459.401281458	5.345839000001433		70467.00122675	70459.497120458	70459.50128145801	70467.00128145801	70459.497192	70466.99639525	7.5	977.63			3	2	0	2	158	160	1000	1050	69889.498007333	69889.6780395	69889.84304925	69890.038216916	69890.233318708
70467.016226708	5.35	0	70467.016226708	5.348739499997464		70483.86615437499	70472.364966208	70472.366226708	70483.866226708	70472.365056458	70483.864800541	11.5	966.8			3	6	1	2	159	160	1000	1050	69889.498007333	69889.6780395	69889.84304925	69890.038216916	69890.233318708
70467.016226708	5.35	0	70467.766226708	5.348739499997464		70483.86615437499	70472.364966208	70472.366226708	70483.866226708	70472.365056458	70483.864800541	11.5	985.49			3	6	1	2	159	160	1000	1050	69889.498007333	69889.6780395	69889.84304925	69890.038216916	69890.233318708
70467.016226708	5.35	0	70468.516226708	5.348739499997464		70483.86615437499	70472.364966208	70472.366226708	70483.866226708	70472.365056458	70483.864800541	11.5	996.68			3	6	1	2	159	160	1000	1050	69889.498007333	69889.6780395	69889.84304925	69890.038216916	69890.233318708
70467.016226708	5.35	0	70469.266226708	5.348739499997464		70483.86615437499	70472.364966208	70472.366226708	70483.866226708	70472.365056458	70483.864800541	11.5	1006.67			3	6	1	2	159	160	1000	1050	69889.498007333	69889.6780395	69889.84304925	69890.038216916	69890.233318708
70467.016226708	5.35	0	70470.016226708	5.348739499997464		70483.86615437499	70472.364966208	70472.366226708	70483.866226708	70472.365056458	70483.864800541	11.5	984.39			3	6	1	2	159	160	1000	1050	69889.498007333	69889.6780395	69889.84304925	69890.038216916	69890.233318708
70467.016226708	5.35	0	70470.766226708	5.348739499997464		70483.86615437499	70472.364966208	70472.366226708	70483.866226708	70472.365056458	70483.864800541	11.5	995.94			3	6	1	2	159	160	1000	1050	69889.498007333	69889.6780395	69889.84304925	69890.038216916	69890.233318708
70467.016226708	5.35	1	70471.516226708	5.348739499997464		70483.86615437499	70472.364966208	70472.366226708	70483.866226708	70472.365056458	70483.864800541	11.5	1123.12			3	6	1	2	159	160	1000	1050	69889.498007333	69889.6780395	69889.84304925	69890.038216916	69890.233318708
70467.016226708	5.35	0	70472.266226708	5.348739499997464		70483.86615437499	70472.364966208	70472.366226708	70483.866226708	70472.365056458	70483.864800541	11.5	944.78			3	6	1	2	159	160	1000	1050	69889.498007333	69889.6780395	69889.84304925	69890.038216916	69890.233318708
70483.884279291	5.35	0	70483.884279291	5.347141749996808		70499.734211041	70489.231421041	70489.234279291	70499.734279291	70489.231509041	70499.730063875	10.5	967.58			3	6	1	2	160	160	1000	1050	69889.498007333	69889.6780395	69889.84304925	69890.038216916	69890.233318708
70483.884279291	5.35	0	70484.634279291	5.347141749996808		70499.734211041	70489.231421041	70489.234279291	70499.734279291	70489.231509041	70499.730063875	10.5	971.39			3	6	1	2	160	160	1000	1050	69889.498007333	69889.6780395	69889.84304925	69890.038216916	69890.233318708
70483.884279291	5.35	0	70485.384279291	5.347141749996808		70499.734211041	70489.231421041	70489.234279291	70499.734279291	70489.231509041	70499.730063875	10.5	970.77			3	6	1	2	160	160	1000	1050	69889.498007333	69889.6780395	69889.84304925	69890.038216916	69890.233318708
70483.884279291	5.35	0	70486.134279291	5.347141749996808		70499.734211041	70489.231421041	70489.234279291	70499.734279291	70489.231509041	70499.730063875	10.5	986.31			3	6	1	2	160	160	1000	1050	69889.498007333	69889.6780395	69889.84304925	69890.038216916	69890.233318708
70483.884279291	5.35	0	70486.884279291	5.347141749996808		70499.734211041	70489.231421041	70489.234279291	70499.734279291	70489.231509041	70499.730063875	10.5	995.2			3	6	1	2	160	160	1000	1050	69889.498007333	69889.6780395	69889.84304925	69890.038216916	69890.233318708
70483.884279291	5.35	0	70487.634279291	5.347141749996808		70499.734211041	70489.231421041	70489.234279291	70499.734279291	70489.231509041	70499.730063875	10.5	992.7			3	6	1	2	160	160	1000	1050	69889.498007333	69889.6780395	69889.84304925	69890.038216916	69890.233318708
70483.884279291	5.35	1	70488.384279291	5.347141749996808		70499.734211041	70489.231421041	70489.234279291	70499.734279291	70489.231509041	70499.730063875	10.5	1107.95			3	6	1	2	160	160	1000	1050	69889.498007333	69889.6780395	69889.84304925	69890.038216916	69890.233318708
70483.884279291	5.35	0	70489.134279291	5.347141749996808		70499.734211041	70489.231421041	70489.234279291	70499.734279291	70489.231509041	70499.730063875	10.5	986.51			3	6	1	2	160	160	1000	1050	69889.498007333	69889.6780395	69889.84304925	69890.038216916	69890.233318708
70499.749523458	5.35	0	70499.749523458	5.346849541994743		70514.599459708	70505.096373	70505.099523458	70514.599523458	70505.096444125	70514.598210708	9.5	991.18			3	5	1	2	161	160	1000	1050	69889.498007333	69889.6780395	69889.84304925	69890.038216916	69890.233318708
70499.749523458	5.35	0	70500.499523458	5.346849541994743		70514.599459708	70505.096373	70505.099523458	70514.599523458	70505.096444125	70514.598210708	9.5	977.18			3	5	1	2	161	160	1000	1050	69889.498007333	69889.6780395	69889.84304925	69890.038216916	69890.233318708
70499.749523458	5.35	0	70501.249523458	5.346849541994743		70514.599459708	70505.096373	70505.099523458	70514.599523458	70505.096444125	70514.598210708	9.5	993.2			3	5	1	2	161	160	1000	1050	69889.498007333	69889.6780395	69889.84304925	69890.038216916	69890.233318708
70499.749523458	5.35	0	70501.999523458	5.346849541994743		70514.599459708	70505.096373	70505.099523458	70514.599523458	70505.096444125	70514.598210708	9.5	961.41			3	5	1	2	161	160	1000	1050	69889.498007333	69889.6780395	69889.84304925	69890.038216916	69890.233318708
70499.749523458	5.35	0	70502.749523458	5.346849541994743		70514.599459708	70505.096373	70505.099523458	70514.599523458	70505.096444125	70514.598210708	9.5	990.16			3	5	1	2	161	160	1000	1050	69889.498007333	69889.6780395	69889.84304925	69890.038216916	69890.233318708
70499.749523458	5.35	1	70503.499523458	5.346849541994743		70514.599459708	70505.096373	70505.099523458	70514.599523458	70505.096444125	70514.598210708	9.5	1091.12			3	5	1	2	161	160	1000	1050	69889.498007333	69889.6780395	69889.84304925	69890.038216916	69890.233318708
70499.749523458	5.35	0	70504.249523458	5.346849541994743		70514.599459708	70505.096373	70505.099523458	70514.599523458	70505.096444125	70514.598210708	9.5	977.82			3	5	1	2	161	160	1000	1050	69889.498007333	69889.6780395	69889.84304925	69890.038216916	69890.233318708
70499.749523458	5.35	0	70504.999523458	5.346849541994743		70514.599459708	70505.096373	70505.099523458	70514.599523458	70505.096444125	70514.598210708	9.5	982.05			3	5	1	2	161	160	1000	1050	69889.498007333	69889.6780395	69889.84304925	69890.038216916	69890.233318708
70514.61758462501	5.35	0	70514.61758462501	5.347546457982389		70531.467512458	70519.965131083	70519.96758462502	70531.46758462502	70519.965226666	70531.464682541	11.5	949.83			4	0	2	2	162	160	1000	1050	69889.498007333	69889.6780395	69889.84304925	69890.038216916	69890.233318708
70514.61758462501	5.35	0	70515.36758462501	5.347546457982389		70531.467512458	70519.965131083	70519.96758462502	70531.46758462502	70519.965226666	70531.464682541	11.5	958.05			4	0	2	2	162	160	1000	1050	69889.498007333	69889.6780395	69889.84304925	69890.038216916	69890.233318708
70514.61758462501	5.35	0	70516.11758462501	5.347546457982389		70531.467512458	70519.965131083	70519.96758462502	70531.46758462502	70519.965226666	70531.464682541	11.5	947.79			4	0	2	2	162	160	1000	1050	69889.498007333	69889.6780395	69889.84304925	69890.038216916	69890.233318708
70514.61758462501	5.35	0	70516.86758462501	5.347546457982389		70531.467512458	70519.965131083	70519.96758462502	70531.46758462502	70519.965226666	70531.464682541	11.5	952.81			4	0	2	2	162	160	1000	1050	69889.498007333	69889.6780395	69889.84304925	69890.038216916	69890.233318708
70514.61758462501	5.35	0	70517.61758462501	5.347546457982389		70531.467512458	70519.965131083	70519.96758462502	70531.46758462502	70519.965226666	70531.464682541	11.5	947.42			4	0	2	2	162	160	1000	1050	69889.498007333	69889.6780395	69889.84304925	69890.038216916	69890.233318708
70514.61758462501	5.35	0	70518.36758462501	5.347546457982389		70531.467512458	70519.965131083	70519.96758462502	70531.46758462502	70519.965226666	70531.464682541	11.5	940.39			4	0	2	2	162	160	1000	1050	69889.498007333	69889.6780395	69889.84304925	69890.038216916	69890.233318708
70514.61758462501	5.35	0	70519.11758462501	5.347546457982389		70531.467512458	70519.965131083	70519.96758462502	70531.46758462502	70519.965226666	70531.464682541	11.5	960.18			4	0	2	2	162	160	1000	1050	69889.498007333	69889.6780395	69889.84304925	69890.038216916	69890.233318708
70514.61758462501	5.35	0	70519.86758462501	5.347546457982389		70531.467512458	70519.965131083	70519.96758462502	70531.46758462502	70519.965226666	70531.464682541	11.5	968.33			4	0	2	2	162	160	1000	1050	69889.498007333	69889.6780395	69889.84304925	69890.038216916	69890.233318708
70531.484074875	5.35	0	70531.484074875	5.347414707997814		70544.834019833	70536.831489583	70536.834074875	70544.834074875	70536.831563875	70544.831752208	8.0	956.48			3	5	1	2	163	160	1000	1050	69889.498007333	69889.6780395	69889.84304925	69890.038216916	69890.233318708
70531.484074875	5.35	0	70532.234074875	5.347414707997814		70544.834019833	70536.831489583	70536.834074875	70544.834074875	70536.831563875	70544.831752208	8.0	957.79			3	5	1	2	163	160	1000	1050	69889.498007333	69889.6780395	69889.84304925	69890.038216916	69890.233318708
70531.484074875	5.35	0	70532.984074875	5.347414707997814		70544.834019833	70536.831489583	70536.834074875	70544.834074875	70536.831563875	70544.831752208	8.0	952.42			3	5	1	2	163	160	1000	1050	69889.498007333	69889.6780395	69889.84304925	69890.038216916	69890.233318708
70531.484074875	5.35	0	70533.734074875	5.347414707997814		70544.834019833	70536.831489583	70536.834074875	70544.834074875	70536.831563875	70544.831752208	8.0	955.35			3	5	1	2	163	160	1000	1050	69889.498007333	69889.6780395	69889.84304925	69890.038216916	69890.233318708
70531.484074875	5.35	0	70534.484074875	5.347414707997814		70544.834019833	70536.831489583	70536.834074875	70544.834074875	70536.831563875	70544.831752208	8.0	969.12			3	5	1	2	163	160	1000	1050	69889.498007333	69889.6780395	69889.84304925	69890.038216916	69890.233318708
70531.484074875	5.35	1	70535.234074875	5.347414707997814		70544.834019833	70536.831489583	70536.834074875	70544.834074875	70536.831563875	70544.831752208	8.0	1105.79			3	5	1	2	163	160	1000	1050	69889.498007333	69889.6780395	69889.84304925	69890.038216916	69890.233318708
70531.484074875	5.35	0	70535.984074875	5.347414707997814		70544.834019833	70536.831489583	70536.834074875	70544.834074875	70536.831563875	70544.831752208	8.0	967.03			3	5	1	2	163	160	1000	1050	69889.498007333	69889.6780395	69889.84304925	69890.038216916	69890.233318708
70531.484074875	5.35	0	70536.734074875	5.347414707997814		70544.834019833	70536.831489583	70536.834074875	70544.834074875	70536.831563875	70544.831752208	8.0	961.36			3	5	1	2	163	160	1000	1050	69889.498007333	69889.6780395	69889.84304925	69890.038216916	69890.233318708
70544.85151975001	5.35	0	70544.85151975001	5.34693812498881		70558.201464041	70550.198457875	70550.20151975001	70558.20151975001	70550.198562375	70558.196133375	8.0	944.61			3	4	1	2	164	160	1000	1050	69889.498007333	69889.6780395	69889.84304925	69890.038216916	69890.233318708
70544.85151975001	5.35	0	70545.60151975001	5.34693812498881		70558.201464041	70550.198457875	70550.20151975001	70558.20151975001	70550.198562375	70558.196133375	8.0	913.67			3	4	1	2	164	160	1000	1050	69889.498007333	69889.6780395	69889.84304925	69890.038216916	69890.233318708
70544.85151975001	5.35	0	70546.35151975001	5.34693812498881		70558.201464041	70550.198457875	70550.20151975001	70558.20151975001	70550.198562375	70558.196133375	8.0	929.8			3	4	1	2	164	160	1000	1050	69889.498007333	69889.6780395	69889.84304925	69890.038216916	69890.233318708
70544.85151975001	5.35	0	70547.10151975001	5.34693812498881		70558.201464041	70550.198457875	70550.20151975001	70558.20151975001	70550.198562375	70558.196133375	8.0	925.45			3	4	1	2	164	160	1000	1050	69889.498007333	69889.6780395	69889.84304925	69890.038216916	69890.233318708
70544.85151975001	5.35	1	70547.85151975001	5.34693812498881		70558.201464041	70550.198457875	70550.20151975001	70558.20151975001	70550.198562375	70558.196133375	8.0	1048.2			3	4	1	2	164	160	1000	1050	69889.498007333	69889.6780395	69889.84304925	69890.038216916	69890.233318708
70544.85151975001	5.35	0	70548.60151975001	5.34693812498881		70558.201464041	70550.198457875	70550.20151975001	70558.20151975001	70550.198562375	70558.196133375	8.0	917.94			3	4	1	2	164	160	1000	1050	69889.498007333	69889.6780395	69889.84304925	69890.038216916	69890.233318708
70544.85151975001	5.35	0	70549.35151975001	5.34693812498881		70558.201464041	70550.198457875	70550.20151975001	70558.20151975001	70550.198562375	70558.196133375	8.0	909.18			3	4	1	2	164	160	1000	1050	69889.498007333	69889.6780395	69889.84304925	69890.038216916	69890.233318708
