onset	duration	trial_type	onset_tone	duration_imprecise	response_time_imprecise	offset_trial	offset_sound_imprecise	onset_iti	offset_iti	onset_iti_imprecise	offset_iti_imprecise	ITI	frequency	key_pressed	correct	dpos	rule	runs	trial_no	tau_std	lim_std	lim_dev	trigger_time_1	trigger_time_2	trigger_time_3	trigger_time_4	trigger_time_5
94904.34743929101	5.35	0	94904.34743929101	5.347817124988069		94914.197414125	94909.695256416	94909.69743929102	94914.19743929102	94909.695261625	94914.195521458	4.5	1142.34		3	3	0	3	180	160	1000	1050	94903.620284416	94903.800404208	94903.98026575	94904.220242208	94904.340039833
94904.34743929101	5.35	0	94905.09743929101	5.347817124988069		94914.197414125	94909.695256416	94909.69743929102	94914.19743929102	94909.695261625	94914.195521458	4.5	1111.93		3	3	0	3	180	160	1000	1050	94903.620284416	94903.800404208	94903.98026575	94904.220242208	94904.340039833
94904.34743929101	5.35	0	94905.84743929101	5.347817124988069		94914.197414125	94909.695256416	94909.69743929102	94914.19743929102	94909.695261625	94914.195521458	4.5	1117.26		3	3	0	3	180	160	1000	1050	94903.620284416	94903.800404208	94903.98026575	94904.220242208	94904.340039833
94904.34743929101	5.35	1	94906.59743929101	5.347817124988069		94914.197414125	94909.695256416	94909.69743929102	94914.19743929102	94909.695261625	94914.195521458	4.5	1060.97		3	3	0	3	180	160	1000	1050	94903.620284416	94903.800404208	94903.98026575	94904.220242208	94904.340039833
94904.34743929101	5.35	0	94907.34743929101	5.347817124988069		94914.197414125	94909.695256416	94909.69743929102	94914.19743929102	94909.695261625	94914.195521458	4.5	1127.5		3	3	0	3	180	160	1000	1050	94903.620284416	94903.800404208	94903.98026575	94904.220242208	94904.340039833
94904.34743929101	5.35	0	94908.09743929101	5.347817124988069		94914.197414125	94909.695256416	94909.69743929102	94914.19743929102	94909.695261625	94914.195521458	4.5	1132.83		3	3	0	3	180	160	1000	1050	94903.620284416	94903.800404208	94903.98026575	94904.220242208	94904.340039833
94904.34743929101	5.35	0	94908.84743929101	5.347817124988069		94914.197414125	94909.695256416	94909.69743929102	94914.19743929102	94909.695261625	94914.195521458	4.5	1115.87		3	3	0	3	180	160	1000	1050	94903.620284416	94903.800404208	94903.98026575	94904.220242208	94904.340039833
94904.34743929101	5.35	0	94909.59743929101	5.347817124988069		94914.197414125	94909.695256416	94909.69743929102	94914.19743929102	94909.695261625	94914.195521458	4.5	1132.3		3	3	0	3	180	160	1000	1050	94903.620284416	94903.800404208	94903.98026575	94904.220242208	94904.340039833
94914.216164083	5.35	0	94914.216164083	5.345293624995975		94922.566141666	94919.561457708	94919.56616408301	94922.56616408301	94919.561462541	94922.561278666	3.0	1093.83		3	4	0	3	181	160	1000	1050	94903.620284416	94903.800404208	94903.98026575	94904.220242208	94904.340039833
94914.216164083	5.35	0	94914.966164083	5.345293624995975		94922.566141666	94919.561457708	94919.56616408301	94922.56616408301	94919.561462541	94922.561278666	3.0	1099.91		3	4	0	3	181	160	1000	1050	94903.620284416	94903.800404208	94903.98026575	94904.220242208	94904.340039833
94914.216164083	5.35	0	94915.716164083	5.345293624995975		94922.566141666	94919.561457708	94919.56616408301	94922.56616408301	94919.561462541	94922.561278666	3.0	1108.46		3	4	0	3	181	160	1000	1050	94903.620284416	94903.800404208	94903.98026575	94904.220242208	94904.340039833
94914.216164083	5.35	0	94916.466164083	5.345293624995975		94922.566141666	94919.561457708	94919.56616408301	94922.56616408301	94919.561462541	94922.561278666	3.0	1131.11		3	4	0	3	181	160	1000	1050	94903.620284416	94903.800404208	94903.98026575	94904.220242208	94904.340039833
94914.216164083	5.35	1	94917.216164083	5.345293624995975		94922.566141666	94919.561457708	94919.56616408301	94922.56616408301	94919.561462541	94922.561278666	3.0	1064.21		3	4	0	3	181	160	1000	1050	94903.620284416	94903.800404208	94903.98026575	94904.220242208	94904.340039833
94914.216164083	5.35	0	94917.966164083	5.345293624995975		94922.566141666	94919.561457708	94919.56616408301	94922.56616408301	94919.561462541	94922.561278666	3.0	1113.99		3	4	0	3	181	160	1000	1050	94903.620284416	94903.800404208	94903.98026575	94904.220242208	94904.340039833
94914.216164083	5.35	0	94918.716164083	5.345293624995975		94922.566141666	94919.561457708	94919.56616408301	94922.56616408301	94919.561462541	94922.561278666	3.0	1116.31		3	4	0	3	181	160	1000	1050	94903.620284416	94903.800404208	94903.98026575	94904.220242208	94904.340039833
94914.216164083	5.35	0	94919.466164083	5.345293624995975		94922.566141666	94919.561457708	94919.56616408301	94922.56616408301	94919.561462541	94922.561278666	3.0	1109.33		3	4	0	3	181	160	1000	1050	94903.620284416	94903.800404208	94903.98026575	94904.220242208	94904.340039833
94922.583329083	5.35	0	94922.583329083	5.345013707992621		94933.9332965	94927.928342791	94927.93332908301	94933.93332908301	94927.928348333	94933.931072833	6.0	1120.99		3	2	0	3	182	160	1000	1050	94903.620284416	94903.800404208	94903.98026575	94904.220242208	94904.340039833
94922.583329083	5.35	0	94923.333329083	5.345013707992621		94933.9332965	94927.928342791	94927.93332908301	94933.93332908301	94927.928348333	94933.931072833	6.0	1089.25		3	2	0	3	182	160	1000	1050	94903.620284416	94903.800404208	94903.98026575	94904.220242208	94904.340039833
94922.583329083	5.35	1	94924.083329083	5.345013707992621		94933.9332965	94927.928342791	94927.93332908301	94933.93332908301	94927.928348333	94933.931072833	6.0	1067.23		3	2	0	3	182	160	1000	1050	94903.620284416	94903.800404208	94903.98026575	94904.220242208	94904.340039833
94922.583329083	5.35	0	94924.833329083	5.345013707992621		94933.9332965	94927.928342791	94927.93332908301	94933.93332908301	94927.928348333	94933.931072833	6.0	1120.68		3	2	0	3	182	160	1000	1050	94903.620284416	94903.800404208	94903.98026575	94904.220242208	94904.340039833
94922.583329083	5.35	0	94925.583329083	5.345013707992621		94933.9332965	94927.928342791	94927.93332908301	94933.93332908301	94927.928348333	94933.931072833	6.0	1108.7		3	2	0	3	182	160	1000	1050	94903.620284416	94903.800404208	94903.98026575	94904.220242208	94904.340039833
94922.583329083	5.35	0	94926.333329083	5.345013707992621		94933.9332965	94927.928342791	94927.93332908301	94933.93332908301	94927.928348333	94933.931072833	6.0	1109.05		3	2	0	3	182	160	1000	1050	94903.620284416	94903.800404208	94903.98026575	94904.220242208	94904.340039833
94922.583329083	5.35	0	94927.083329083	5.345013707992621		94933.9332965	94927.928342791	94927.93332908301	94933.93332908301	94927.928348333	94933.931072833	6.0	1127.35		3	2	0	3	182	160	1000	1050	94903.620284416	94903.800404208	94903.98026575	94904.220242208	94904.340039833
94922.583329083	5.35	0	94927.833329083	5.345013707992621		94933.9332965	94927.928342791	94927.93332908301	94933.93332908301	94927.928348333	94933.931072833	6.0	1094.76		3	2	0	3	182	160	1000	1050	94903.620284416	94903.800404208	94903.98026575	94904.220242208	94904.340039833
94933.95579625001	5.35	0	94933.95579625001	5.341324040986365		94944.805763916	94939.297120291	94939.30579625002	94944.80579625002	94939.29712575	94944.794757958	5.5	1104.01		3	2	0	3	183	160	1000	1050	94903.620284416	94903.800404208	94903.98026575	94904.220242208	94904.340039833
94933.95579625001	5.35	0	94934.70579625001	5.341324040986365		94944.805763916	94939.297120291	94939.30579625002	94944.80579625002	94939.29712575	94944.794757958	5.5	1099.48		3	2	0	3	183	160	1000	1050	94903.620284416	94903.800404208	94903.98026575	94904.220242208	94904.340039833
94933.95579625001	5.35	1	94935.45579625001	5.341324040986365		94944.805763916	94939.297120291	94939.30579625002	94944.80579625002	94939.29712575	94944.794757958	5.5	1045.88		3	2	0	3	183	160	1000	1050	94903.620284416	94903.800404208	94903.98026575	94904.220242208	94904.340039833
94933.95579625001	5.35	0	94936.20579625001	5.341324040986365		94944.805763916	94939.297120291	94939.30579625002	94944.80579625002	94939.29712575	94944.794757958	5.5	1091.4		3	2	0	3	183	160	1000	1050	94903.620284416	94903.800404208	94903.98026575	94904.220242208	94904.340039833
94933.95579625001	5.35	0	94936.95579625001	5.341324040986365		94944.805763916	94939.297120291	94939.30579625002	94944.80579625002	94939.29712575	94944.794757958	5.5	1100.21		3	2	0	3	183	160	1000	1050	94903.620284416	94903.800404208	94903.98026575	94904.220242208	94904.340039833
94933.95579625001	5.35	0	94937.70579625001	5.341324040986365		94944.805763916	94939.297120291	94939.30579625002	94944.80579625002	94939.29712575	94944.794757958	5.5	1066.54		3	2	0	3	183	160	1000	1050	94903.620284416	94903.800404208	94903.98026575	94904.220242208	94904.340039833
94933.95579625001	5.35	0	94938.45579625001	5.341324040986365		94944.805763916	94939.297120291	94939.30579625002	94944.80579625002	94939.29712575	94944.794757958	5.5	1055.45		3	2	0	3	183	160	1000	1050	94903.620284416	94903.800404208	94903.98026575	94904.220242208	94904.340039833
94933.95579625001	5.35	0	94939.20579625001	5.341324040986365		94944.805763916	94939.297120291	94939.30579625002	94944.80579625002	94939.29712575	94944.794757958	5.5	1062.1		3	2	0	3	183	160	1000	1050	94903.620284416	94903.800404208	94903.98026575	94904.220242208	94904.340039833
94944.81513887501	5.35	0	94944.81513887501	5.346219832994393		94953.665112625	94950.161358708	94950.16513887502	94953.66513887502	94950.161364125	94953.661794333	3.5	1068.16		3	4	0	3	184	160	1000	1050	94903.620284416	94903.800404208	94903.98026575	94904.220242208	94904.340039833
94944.81513887501	5.35	0	94945.56513887501	5.346219832994393		94953.665112625	94950.161358708	94950.16513887502	94953.66513887502	94950.161364125	94953.661794333	3.5	1084.89		3	4	0	3	184	160	1000	1050	94903.620284416	94903.800404208	94903.98026575	94904.220242208	94904.340039833
94944.81513887501	5.35	0	94946.31513887501	5.346219832994393		94953.665112625	94950.161358708	94950.16513887502	94953.66513887502	94950.161364125	94953.661794333	3.5	1064.6		3	4	0	3	184	160	1000	1050	94903.620284416	94903.800404208	94903.98026575	94904.220242208	94904.340039833
94944.81513887501	5.35	0	94947.06513887501	5.346219832994393		94953.665112625	94950.161358708	94950.16513887502	94953.66513887502	94950.161364125	94953.661794333	3.5	1063.1		3	4	0	3	184	160	1000	1050	94903.620284416	94903.800404208	94903.98026575	94904.220242208	94904.340039833
94944.81513887501	5.35	1	94947.81513887501	5.346219832994393		94953.665112625	94950.161358708	94950.16513887502	94953.66513887502	94950.161364125	94953.661794333	3.5	1068.14		3	4	0	3	184	160	1000	1050	94903.620284416	94903.800404208	94903.98026575	94904.220242208	94904.340039833
94944.81513887501	5.35	0	94948.56513887501	5.346219832994393		94953.665112625	94950.161358708	94950.16513887502	94953.66513887502	94950.161364125	94953.661794333	3.5	1095.08		3	4	0	3	184	160	1000	1050	94903.620284416	94903.800404208	94903.98026575	94904.220242208	94904.340039833
94944.81513887501	5.35	0	94949.31513887501	5.346219832994393		94953.665112625	94950.161358708	94950.16513887502	94953.66513887502	94950.161364125	94953.661794333	3.5	1095.91		3	4	0	3	184	160	1000	1050	94903.620284416	94903.800404208	94903.98026575	94904.220242208	94904.340039833
94944.81513887501	5.35	0	94950.06513887501	5.346219832994393		94953.665112625	94950.161358708	94950.16513887502	94953.66513887502	94950.161364125	94953.661794333	3.5	1076.42		3	4	0	3	184	160	1000	1050	94903.620284416	94903.800404208	94903.98026575	94904.220242208	94904.340039833
94953.681050083	5.35	0	94953.681050083	5.349532332998933		94966.531011166	94959.030582416	94959.03105008301	94966.53105008301	94959.030589208	94966.529994666	7.5	1078.48		3	4	0	3	185	160	1000	1050	94903.620284416	94903.800404208	94903.98026575	94904.220242208	94904.340039833
94953.681050083	5.35	0	94954.431050083	5.349532332998933		94966.531011166	94959.030582416	94959.03105008301	94966.53105008301	94959.030589208	94966.529994666	7.5	1080.02		3	4	0	3	185	160	1000	1050	94903.620284416	94903.800404208	94903.98026575	94904.220242208	94904.340039833
94953.681050083	5.35	0	94955.181050083	5.349532332998933		94966.531011166	94959.030582416	94959.03105008301	94966.53105008301	94959.030589208	94966.529994666	7.5	1081.12		3	4	0	3	185	160	1000	1050	94903.620284416	94903.800404208	94903.98026575	94904.220242208	94904.340039833
94953.681050083	5.35	0	94955.931050083	5.349532332998933		94966.531011166	94959.030582416	94959.03105008301	94966.53105008301	94959.030589208	94966.529994666	7.5	1056.57		3	4	0	3	185	160	1000	1050	94903.620284416	94903.800404208	94903.98026575	94904.220242208	94904.340039833
94953.681050083	5.35	1	94956.681050083	5.349532332998933		94966.531011166	94959.030582416	94959.03105008301	94966.53105008301	94959.030589208	94966.529994666	7.5	1056.94		3	4	0	3	185	160	1000	1050	94903.620284416	94903.800404208	94903.98026575	94904.220242208	94904.340039833
94953.681050083	5.35	0	94957.431050083	5.349532332998933		94966.531011166	94959.030582416	94959.03105008301	94966.53105008301	94959.030589208	94966.529994666	7.5	1081.6		3	4	0	3	185	160	1000	1050	94903.620284416	94903.800404208	94903.98026575	94904.220242208	94904.340039833
94953.681050083	5.35	0	94958.181050083	5.349532332998933		94966.531011166	94959.030582416	94959.03105008301	94966.53105008301	94959.030589208	94966.529994666	7.5	1083.74		3	4	0	3	185	160	1000	1050	94903.620284416	94903.800404208	94903.98026575	94904.220242208	94904.340039833
94953.681050083	5.35	0	94958.931050083	5.349532332998933		94966.531011166	94959.030582416	94959.03105008301	94966.53105008301	94959.030589208	94966.529994666	7.5	1080.98		3	4	0	3	185	160	1000	1050	94903.620284416	94903.800404208	94903.98026575	94904.220242208	94904.340039833
94966.547886125	5.35	0	94966.547886125	5.345709832996363		94975.897857083	94971.893595958	94971.897886125	94975.897886125	94971.893604833	94975.895319875	4.0	1076.95		3	4	0	3	186	160	1000	1050	94903.620284416	94903.800404208	94903.98026575	94904.220242208	94904.340039833
94966.547886125	5.35	0	94967.297886125	5.345709832996363		94975.897857083	94971.893595958	94971.897886125	94975.897886125	94971.893604833	94975.895319875	4.0	1081.62		3	4	0	3	186	160	1000	1050	94903.620284416	94903.800404208	94903.98026575	94904.220242208	94904.340039833
94966.547886125	5.35	0	94968.047886125	5.345709832996363		94975.897857083	94971.893595958	94971.897886125	94975.897886125	94971.893604833	94975.895319875	4.0	1067.87		3	4	0	3	186	160	1000	1050	94903.620284416	94903.800404208	94903.98026575	94904.220242208	94904.340039833
94966.547886125	5.35	0	94968.797886125	5.345709832996363		94975.897857083	94971.893595958	94971.897886125	94975.897886125	94971.893604833	94975.895319875	4.0	1067.3		3	4	0	3	186	160	1000	1050	94903.620284416	94903.800404208	94903.98026575	94904.220242208	94904.340039833
94966.547886125	5.35	1	94969.547886125	5.345709832996363		94975.897857083	94971.893595958	94971.897886125	94975.897886125	94971.893604833	94975.895319875	4.0	1011.89		3	4	0	3	186	160	1000	1050	94903.620284416	94903.800404208	94903.98026575	94904.220242208	94904.340039833
94966.547886125	5.35	0	94970.297886125	5.345709832996363		94975.897857083	94971.893595958	94971.897886125	94975.897886125	94971.893604833	94975.895319875	4.0	1049.74		3	4	0	3	186	160	1000	1050	94903.620284416	94903.800404208	94903.98026575	94904.220242208	94904.340039833
94966.547886125	5.35	0	94971.047886125	5.345709832996363		94975.897857083	94971.893595958	94971.897886125	94975.897886125	94971.893604833	94975.895319875	4.0	1046.79		3	4	0	3	186	160	1000	1050	94903.620284416	94903.800404208	94903.98026575	94904.220242208	94904.340039833
94966.547886125	5.35	0	94971.797886125	5.345709832996363		94975.897857083	94971.893595958	94971.897886125	94975.897886125	94971.893604833	94975.895319875	4.0	1042.07		3	4	0	3	186	160	1000	1050	94903.620284416	94903.800404208	94903.98026575	94904.220242208	94904.340039833
94975.91473204101	5.35	0	94975.91473204101	5.348781499982579		94987.264696125	94981.263513541	94981.26473204102	94987.26473204102	94981.263518541	94987.264390833	6.0	1030.78		3	3	0	3	187	160	1000	1050	94903.620284416	94903.800404208	94903.98026575	94904.220242208	94904.340039833
94975.91473204101	5.35	0	94976.66473204101	5.348781499982579		94987.264696125	94981.263513541	94981.26473204102	94987.26473204102	94981.263518541	94987.264390833	6.0	1042.24		3	3	0	3	187	160	1000	1050	94903.620284416	94903.800404208	94903.98026575	94904.220242208	94904.340039833
94975.91473204101	5.35	0	94977.41473204101	5.348781499982579		94987.264696125	94981.263513541	94981.26473204102	94987.26473204102	94981.263518541	94987.264390833	6.0	1043.12		3	3	0	3	187	160	1000	1050	94903.620284416	94903.800404208	94903.98026575	94904.220242208	94904.340039833
94975.91473204101	5.35	1	94978.16473204101	5.348781499982579		94987.264696125	94981.263513541	94981.26473204102	94987.26473204102	94981.263518541	94987.264390833	6.0	1012.79		3	3	0	3	187	160	1000	1050	94903.620284416	94903.800404208	94903.98026575	94904.220242208	94904.340039833
94975.91473204101	5.35	0	94978.91473204101	5.348781499982579		94987.264696125	94981.263513541	94981.26473204102	94987.26473204102	94981.263518541	94987.264390833	6.0	1083.16		3	3	0	3	187	160	1000	1050	94903.620284416	94903.800404208	94903.98026575	94904.220242208	94904.340039833
94975.91473204101	5.35	0	94979.66473204101	5.348781499982579		94987.264696125	94981.263513541	94981.26473204102	94987.26473204102	94981.263518541	94987.264390833	6.0	1035.04		3	3	0	3	187	160	1000	1050	94903.620284416	94903.800404208	94903.98026575	94904.220242208	94904.340039833
94975.91473204101	5.35	0	94980.41473204101	5.348781499982579		94987.264696125	94981.263513541	94981.26473204102	94987.26473204102	94981.263518541	94987.264390833	6.0	1026.09		3	3	0	3	187	160	1000	1050	94903.620284416	94903.800404208	94903.98026575	94904.220242208	94904.340039833
94975.91473204101	5.35	0	94981.16473204101	5.348781499982579		94987.264696125	94981.263513541	94981.26473204102	94987.26473204102	94981.263518541	94987.264390833	6.0	1003.82		3	3	0	3	187	160	1000	1050	94903.620284416	94903.800404208	94903.98026575	94904.220242208	94904.340039833
94987.284071083	5.35	0	94987.284071083	5.345555583000532		94999.634031083	94992.629626666	94992.63407108301	94999.63407108301	94992.629632	94999.62964525	7.0	1033.14		4	0	2	3	188	160	1000	1050	94903.620284416	94903.800404208	94903.98026575	94904.220242208	94904.340039833
94987.284071083	5.35	0	94988.034071083	5.345555583000532		94999.634031083	94992.629626666	94992.63407108301	94999.63407108301	94992.629632	94999.62964525	7.0	1015.27		4	0	2	3	188	160	1000	1050	94903.620284416	94903.800404208	94903.98026575	94904.220242208	94904.340039833
94987.284071083	5.35	0	94988.784071083	5.345555583000532		94999.634031083	94992.629626666	94992.63407108301	94999.63407108301	94992.629632	94999.62964525	7.0	966.93		4	0	2	3	188	160	1000	1050	94903.620284416	94903.800404208	94903.98026575	94904.220242208	94904.340039833
94987.284071083	5.35	0	94989.534071083	5.345555583000532		94999.634031083	94992.629626666	94992.63407108301	94999.63407108301	94992.629632	94999.62964525	7.0	960.73		4	0	2	3	188	160	1000	1050	94903.620284416	94903.800404208	94903.98026575	94904.220242208	94904.340039833
94987.284071083	5.35	0	94990.284071083	5.345555583000532		94999.634031083	94992.629626666	94992.63407108301	94999.63407108301	94992.629632	94999.62964525	7.0	947.31		4	0	2	3	188	160	1000	1050	94903.620284416	94903.800404208	94903.98026575	94904.220242208	94904.340039833
94987.284071083	5.35	0	94991.034071083	5.345555583000532		94999.634031083	94992.629626666	94992.63407108301	94999.63407108301	94992.629632	94999.62964525	7.0	961.13		4	0	2	3	188	160	1000	1050	94903.620284416	94903.800404208	94903.98026575	94904.220242208	94904.340039833
94987.284071083	5.35	0	94991.784071083	5.345555583000532		94999.634031083	94992.629626666	94992.63407108301	94999.63407108301	94992.629632	94999.62964525	7.0	968.21		4	0	2	3	188	160	1000	1050	94903.620284416	94903.800404208	94903.98026575	94904.220242208	94904.340039833
94987.284071083	5.35	0	94992.534071083	5.345555583000532		94999.634031083	94992.629626666	94992.63407108301	94999.63407108301	94992.629632	94999.62964525	7.0	987.56		4	0	2	3	188	160	1000	1050	94903.620284416	94903.800404208	94903.98026575	94904.220242208	94904.340039833
94999.6493435	5.35	0	94999.6493435	5.346990124991862		95009.999309041	95004.996333625	95004.9993435	95009.9993435	95004.996338166	95009.996359708	5.0	976.38		3	4	1	3	189	160	1000	1050	94903.620284416	94903.800404208	94903.98026575	94904.220242208	94904.340039833
94999.6493435	5.35	0	95000.3993435	5.346990124991862		95009.999309041	95004.996333625	95004.9993435	95009.9993435	95004.996338166	95009.996359708	5.0	988.98		3	4	1	3	189	160	1000	1050	94903.620284416	94903.800404208	94903.98026575	94904.220242208	94904.340039833
94999.6493435	5.35	0	95001.1493435	5.346990124991862		95009.999309041	95004.996333625	95004.9993435	95009.9993435	95004.996338166	95009.996359708	5.0	974.23		3	4	1	3	189	160	1000	1050	94903.620284416	94903.800404208	94903.98026575	94904.220242208	94904.340039833
94999.6493435	5.35	0	95001.8993435	5.346990124991862		95009.999309041	95004.996333625	95004.9993435	95009.9993435	95004.996338166	95009.996359708	5.0	987.22		3	4	1	3	189	160	1000	1050	94903.620284416	94903.800404208	94903.98026575	94904.220242208	94904.340039833
94999.6493435	5.35	1	95002.6493435	5.346990124991862		95009.999309041	95004.996333625	95004.9993435	95009.9993435	95004.996338166	95009.996359708	5.0	1031.51		3	4	1	3	189	160	1000	1050	94903.620284416	94903.800404208	94903.98026575	94904.220242208	94904.340039833
94999.6493435	5.35	0	95003.3993435	5.346990124991862		95009.999309041	95004.996333625	95004.9993435	95009.9993435	95004.996338166	95009.996359708	5.0	998.36		3	4	1	3	189	160	1000	1050	94903.620284416	94903.800404208	94903.98026575	94904.220242208	94904.340039833
94999.6493435	5.35	0	95004.1493435	5.346990124991862		95009.999309041	95004.996333625	95004.9993435	95009.9993435	95004.996338166	95009.996359708	5.0	1026.65		3	4	1	3	189	160	1000	1050	94903.620284416	94903.800404208	94903.98026575	94904.220242208	94904.340039833
94999.6493435	5.35	0	95004.8993435	5.346990124991862		95009.999309041	95004.996333625	95004.9993435	95009.9993435	95004.996338166	95009.996359708	5.0	968.41		3	4	1	3	189	160	1000	1050	94903.620284416	94903.800404208	94903.98026575	94904.220242208	94904.340039833
95010.01618400001	5.35	0	95010.01618400001	5.346748374999152		95021.366145708	95015.362932375	95015.36618400001	95021.36618400001	95015.362937916	95021.361428458	6.0	985.39		3	6	1	3	190	160	1000	1050	94903.620284416	94903.800404208	94903.98026575	94904.220242208	94904.340039833
95010.01618400001	5.35	0	95010.76618400001	5.346748374999152		95021.366145708	95015.362932375	95015.36618400001	95021.36618400001	95015.362937916	95021.361428458	6.0	967.04		3	6	1	3	190	160	1000	1050	94903.620284416	94903.800404208	94903.98026575	94904.220242208	94904.340039833
95010.01618400001	5.35	0	95011.51618400001	5.346748374999152		95021.366145708	95015.362932375	95015.36618400001	95021.36618400001	95015.362937916	95021.361428458	6.0	959.68		3	6	1	3	190	160	1000	1050	94903.620284416	94903.800404208	94903.98026575	94904.220242208	94904.340039833
95010.01618400001	5.35	0	95012.26618400001	5.346748374999152		95021.366145708	95015.362932375	95015.36618400001	95021.36618400001	95015.362937916	95021.361428458	6.0	964.8		3	6	1	3	190	160	1000	1050	94903.620284416	94903.800404208	94903.98026575	94904.220242208	94904.340039833
95010.01618400001	5.35	0	95013.01618400001	5.346748374999152		95021.366145708	95015.362932375	95015.36618400001	95021.36618400001	95015.362937916	95021.361428458	6.0	972.75		3	6	1	3	190	160	1000	1050	94903.620284416	94903.800404208	94903.98026575	94904.220242208	94904.340039833
95010.01618400001	5.35	0	95013.76618400001	5.346748374999152		95021.366145708	95015.362932375	95015.36618400001	95021.36618400001	95015.362937916	95021.361428458	6.0	983.44		3	6	1	3	190	160	1000	1050	94903.620284416	94903.800404208	94903.98026575	94904.220242208	94904.340039833
95010.01618400001	5.35	1	95014.51618400001	5.346748374999152		95021.366145708	95015.362932375	95015.36618400001	95021.36618400001	95015.362937916	95021.361428458	6.0	1027.26		3	6	1	3	190	160	1000	1050	94903.620284416	94903.800404208	94903.98026575	94904.220242208	94904.340039833
95010.01618400001	5.35	0	95015.26618400001	5.346748374999152		95021.366145708	95015.362932375	95015.36618400001	95021.36618400001	95015.362937916	95021.361428458	6.0	995.61		3	6	1	3	190	160	1000	1050	94903.620284416	94903.800404208	94903.98026575	94904.220242208	94904.340039833
95021.38239562501	5.35	0	95021.38239562501	5.346891999986838		95029.7323675	95026.729287625	95026.73239562502	95029.73239562502	95026.729293	95029.727855458	3.0	1009.38		3	6	1	3	191	160	1000	1050	94903.620284416	94903.800404208	94903.98026575	94904.220242208	94904.340039833
95021.38239562501	5.35	0	95022.13239562501	5.346891999986838		95029.7323675	95026.729287625	95026.73239562502	95029.73239562502	95026.729293	95029.727855458	3.0	1004.21		3	6	1	3	191	160	1000	1050	94903.620284416	94903.800404208	94903.98026575	94904.220242208	94904.340039833
95021.38239562501	5.35	0	95022.88239562501	5.346891999986838		95029.7323675	95026.729287625	95026.73239562502	95029.73239562502	95026.729293	95029.727855458	3.0	1010.25		3	6	1	3	191	160	1000	1050	94903.620284416	94903.800404208	94903.98026575	94904.220242208	94904.340039833
95021.38239562501	5.35	0	95023.63239562501	5.346891999986838		95029.7323675	95026.729287625	95026.73239562502	95029.73239562502	95026.729293	95029.727855458	3.0	1013.17		3	6	1	3	191	160	1000	1050	94903.620284416	94903.800404208	94903.98026575	94904.220242208	94904.340039833
95021.38239562501	5.35	0	95024.38239562501	5.346891999986838		95029.7323675	95026.729287625	95026.73239562502	95029.73239562502	95026.729293	95029.727855458	3.0	994.73		3	6	1	3	191	160	1000	1050	94903.620284416	94903.800404208	94903.98026575	94904.220242208	94904.340039833
95021.38239562501	5.35	0	95025.13239562501	5.346891999986838		95029.7323675	95026.729287625	95026.73239562502	95029.73239562502	95026.729293	95029.727855458	3.0	1019.13		3	6	1	3	191	160	1000	1050	94903.620284416	94903.800404208	94903.98026575	94904.220242208	94904.340039833
95021.38239562501	5.35	1	95025.88239562501	5.346891999986838		95029.7323675	95026.729287625	95026.73239562502	95029.73239562502	95026.729293	95029.727855458	3.0	1041.94		3	6	1	3	191	160	1000	1050	94903.620284416	94903.800404208	94903.98026575	94904.220242208	94904.340039833
95021.38239562501	5.35	0	95026.63239562501	5.346891999986838		95029.7323675	95026.729287625	95026.73239562502	95029.73239562502	95026.729293	95029.727855458	3.0	1016.31		3	6	1	3	191	160	1000	1050	94903.620284416	94903.800404208	94903.98026575	94904.220242208	94904.340039833
95029.74736745801	5.35	0	95029.74736745801	5.34889845798898		95042.597323708	95035.096265916	95035.09736745802	95042.59736745802	95035.096271041	95042.59453525	7.5	1001.08		3	5	1	3	192	160	1000	1050	94903.620284416	94903.800404208	94903.98026575	94904.220242208	94904.340039833
95029.74736745801	5.35	0	95030.49736745801	5.34889845798898		95042.597323708	95035.096265916	95035.09736745802	95042.59736745802	95035.096271041	95042.59453525	7.5	1014.39		3	5	1	3	192	160	1000	1050	94903.620284416	94903.800404208	94903.98026575	94904.220242208	94904.340039833
95029.74736745801	5.35	0	95031.24736745801	5.34889845798898		95042.597323708	95035.096265916	95035.09736745802	95042.59736745802	95035.096271041	95042.59453525	7.5	980.21		3	5	1	3	192	160	1000	1050	94903.620284416	94903.800404208	94903.98026575	94904.220242208	94904.340039833
95029.74736745801	5.35	0	95031.99736745801	5.34889845798898		95042.597323708	95035.096265916	95035.09736745802	95042.59736745802	95035.096271041	95042.59453525	7.5	991.81		3	5	1	3	192	160	1000	1050	94903.620284416	94903.800404208	94903.98026575	94904.220242208	94904.340039833
95029.74736745801	5.35	0	95032.74736745801	5.34889845798898		95042.597323708	95035.096265916	95035.09736745802	95042.59736745802	95035.096271041	95042.59453525	7.5	984.54		3	5	1	3	192	160	1000	1050	94903.620284416	94903.800404208	94903.98026575	94904.220242208	94904.340039833
95029.74736745801	5.35	1	95033.49736745801	5.34889845798898		95042.597323708	95035.096265916	95035.09736745802	95042.59736745802	95035.096271041	95042.59453525	7.5	1036.28		3	5	1	3	192	160	1000	1050	94903.620284416	94903.800404208	94903.98026575	94904.220242208	94904.340039833
95029.74736745801	5.35	0	95034.24736745801	5.34889845798898		95042.597323708	95035.096265916	95035.09736745802	95042.59736745802	95035.096271041	95042.59453525	7.5	987.91		3	5	1	3	192	160	1000	1050	94903.620284416	94903.800404208	94903.98026575	94904.220242208	94904.340039833
95029.74736745801	5.35	0	95034.99736745801	5.34889845798898		95042.597323708	95035.096265916	95035.09736745802	95042.59736745802	95035.096271041	95042.59453525	7.5	983.11		3	5	1	3	192	160	1000	1050	94903.620284416	94903.800404208	94903.98026575	94904.220242208	94904.340039833
95042.61607366601	5.35	0	95042.61607366601	5.345179666983313		95052.4660405	95047.961253333	95047.96607366602	95052.46607366602	95047.96125825	95052.462983125	4.5	977.53		3	4	1	3	193	160	1000	1050	94903.620284416	94903.800404208	94903.98026575	94904.220242208	94904.340039833
95042.61607366601	5.35	0	95043.36607366601	5.345179666983313		95052.4660405	95047.961253333	95047.96607366602	95052.46607366602	95047.96125825	95052.462983125	4.5	960.27		3	4	1	3	193	160	1000	1050	94903.620284416	94903.800404208	94903.98026575	94904.220242208	94904.340039833
95042.61607366601	5.35	0	95044.11607366601	5.345179666983313		95052.4660405	95047.961253333	95047.96607366602	95052.46607366602	95047.96125825	95052.462983125	4.5	969.11		3	4	1	3	193	160	1000	1050	94903.620284416	94903.800404208	94903.98026575	94904.220242208	94904.340039833
95042.61607366601	5.35	0	95044.86607366601	5.345179666983313		95052.4660405	95047.961253333	95047.96607366602	95052.46607366602	95047.96125825	95052.462983125	4.5	975.05		3	4	1	3	193	160	1000	1050	94903.620284416	94903.800404208	94903.98026575	94904.220242208	94904.340039833
95042.61607366601	5.35	1	95045.61607366601	5.345179666983313		95052.4660405	95047.961253333	95047.96607366602	95052.46607366602	95047.96125825	95052.462983125	4.5	1020.37		3	4	1	3	193	160	1000	1050	94903.620284416	94903.800404208	94903.98026575	94904.220242208	94904.340039833
95042.61607366601	5.35	0	95046.36607366601	5.345179666983313		95052.4660405	95047.961253333	95047.96607366602	95052.46607366602	95047.96125825	95052.462983125	4.5	962.09		3	4	1	3	193	160	1000	1050	94903.620284416	94903.800404208	94903.98026575	94904.220242208	94904.340039833
95042.61607366601	5.35	0	95047.11607366601	5.345179666983313		95052.4660405	95047.961253333	95047.96607366602	95052.46607366602	95047.96125825	95052.462983125	4.5	983.84		3	4	1	3	193	160	1000	1050	94903.620284416	94903.800404208	94903.98026575	94904.220242208	94904.340039833
95042.61607366601	5.35	0	95047.86607366601	5.345179666983313		95052.4660405	95047.961253333	95047.96607366602	95052.46607366602	95047.96125825	95052.462983125	4.5	960.06		3	4	1	3	193	160	1000	1050	94903.620284416	94903.800404208	94903.98026575	94904.220242208	94904.340039833
95052.482290458	5.35	0	95052.482290458	5.346930291998433		95060.832262041	95057.82922075	95057.83229045801	95060.83229045801	95057.829227333	95060.829263416	3.0	989.46		3	5	1	3	194	160	1000	1050	94903.620284416	94903.800404208	94903.98026575	94904.220242208	94904.340039833
95052.482290458	5.35	0	95053.232290458	5.346930291998433		95060.832262041	95057.82922075	95057.83229045801	95060.83229045801	95057.829227333	95060.829263416	3.0	971.74		3	5	1	3	194	160	1000	1050	94903.620284416	94903.800404208	94903.98026575	94904.220242208	94904.340039833
95052.482290458	5.35	0	95053.982290458	5.346930291998433		95060.832262041	95057.82922075	95057.83229045801	95060.83229045801	95057.829227333	95060.829263416	3.0	981.21		3	5	1	3	194	160	1000	1050	94903.620284416	94903.800404208	94903.98026575	94904.220242208	94904.340039833
95052.482290458	5.35	0	95054.732290458	5.346930291998433		95060.832262041	95057.82922075	95057.83229045801	95060.83229045801	95057.829227333	95060.829263416	3.0	956.61		3	5	1	3	194	160	1000	1050	94903.620284416	94903.800404208	94903.98026575	94904.220242208	94904.340039833
95052.482290458	5.35	0	95055.482290458	5.346930291998433		95060.832262041	95057.82922075	95057.83229045801	95060.83229045801	95057.829227333	95060.829263416	3.0	943.96		3	5	1	3	194	160	1000	1050	94903.620284416	94903.800404208	94903.98026575	94904.220242208	94904.340039833
95052.482290458	5.35	1	95056.232290458	5.346930291998433		95060.832262041	95057.82922075	95057.83229045801	95060.83229045801	95057.829227333	95060.829263416	3.0	1030.12		3	5	1	3	194	160	1000	1050	94903.620284416	94903.800404208	94903.98026575	94904.220242208	94904.340039833
95052.482290458	5.35	0	95056.982290458	5.346930291998433		95060.832262041	95057.82922075	95057.83229045801	95060.83229045801	95057.829227333	95060.829263416	3.0	958.19		3	5	1	3	194	160	1000	1050	94903.620284416	94903.800404208	94903.98026575	94904.220242208	94904.340039833
95052.482290458	5.35	0	95057.732290458	5.346930291998433		95060.832262041	95057.82922075	95057.83229045801	95060.83229045801	95057.829227333	95060.829263416	3.0	965.88		3	5	1	3	194	160	1000	1050	94903.620284416	94903.800404208	94903.98026575	94904.220242208	94904.340039833
95060.8475745	5.35	0	95060.8475745	5.34837824999704		95072.697532958	95066.19595275	95066.19757450001	95072.69757450001	95066.195957583	95072.696909958	6.5	972.64		3	6	1	3	195	160	1000	1050	94903.620284416	94903.800404208	94903.98026575	94904.220242208	94904.340039833
95060.8475745	5.35	0	95061.5975745	5.34837824999704		95072.697532958	95066.19595275	95066.19757450001	95072.69757450001	95066.195957583	95072.696909958	6.5	972.01		3	6	1	3	195	160	1000	1050	94903.620284416	94903.800404208	94903.98026575	94904.220242208	94904.340039833
95060.8475745	5.35	0	95062.3475745	5.34837824999704		95072.697532958	95066.19595275	95066.19757450001	95072.69757450001	95066.195957583	95072.696909958	6.5	972.35		3	6	1	3	195	160	1000	1050	94903.620284416	94903.800404208	94903.98026575	94904.220242208	94904.340039833
95060.8475745	5.35	0	95063.0975745	5.34837824999704		95072.697532958	95066.19595275	95066.19757450001	95072.69757450001	95066.195957583	95072.696909958	6.5	957.19		3	6	1	3	195	160	1000	1050	94903.620284416	94903.800404208	94903.98026575	94904.220242208	94904.340039833
95060.8475745	5.35	0	95063.8475745	5.34837824999704		95072.697532958	95066.19595275	95066.19757450001	95072.69757450001	95066.195957583	95072.696909958	6.5	977.85		3	6	1	3	195	160	1000	1050	94903.620284416	94903.800404208	94903.98026575	94904.220242208	94904.340039833
95060.8475745	5.35	0	95064.5975745	5.34837824999704		95072.697532958	95066.19595275	95066.19757450001	95072.69757450001	95066.195957583	95072.696909958	6.5	962.25		3	6	1	3	195	160	1000	1050	94903.620284416	94903.800404208	94903.98026575	94904.220242208	94904.340039833
95060.8475745	5.35	1	95065.3475745	5.34837824999704		95072.697532958	95066.19595275	95066.19757450001	95072.69757450001	95066.195957583	95072.696909958	6.5	1015.82		3	6	1	3	195	160	1000	1050	94903.620284416	94903.800404208	94903.98026575	94904.220242208	94904.340039833
95060.8475745	5.35	0	95066.0975745	5.34837824999704		95072.697532958	95066.19595275	95066.19757450001	95072.69757450001	95066.195957583	95072.696909958	6.5	965.14		3	6	1	3	195	160	1000	1050	94903.620284416	94903.800404208	94903.98026575	94904.220242208	94904.340039833
95072.716282875	5.35	0	95072.716282875	5.344996333005838		95085.066239791	95078.061279208	95078.066282875	95085.066282875	95078.061284458	95085.063608083	7.0	971.89		3	5	1	3	196	160	1000	1050	94903.620284416	94903.800404208	94903.98026575	94904.220242208	94904.340039833
95072.716282875	5.35	0	95073.466282875	5.344996333005838		95085.066239791	95078.061279208	95078.066282875	95085.066282875	95078.061284458	95085.063608083	7.0	963.47		3	5	1	3	196	160	1000	1050	94903.620284416	94903.800404208	94903.98026575	94904.220242208	94904.340039833
95072.716282875	5.35	0	95074.216282875	5.344996333005838		95085.066239791	95078.061279208	95078.066282875	95085.066282875	95078.061284458	95085.063608083	7.0	990.68		3	5	1	3	196	160	1000	1050	94903.620284416	94903.800404208	94903.98026575	94904.220242208	94904.340039833
95072.716282875	5.35	0	95074.966282875	5.344996333005838		95085.066239791	95078.061279208	95078.066282875	95085.066282875	95078.061284458	95085.063608083	7.0	992.53		3	5	1	3	196	160	1000	1050	94903.620284416	94903.800404208	94903.98026575	94904.220242208	94904.340039833
95072.716282875	5.35	0	95075.716282875	5.344996333005838		95085.066239791	95078.061279208	95078.066282875	95085.066282875	95078.061284458	95085.063608083	7.0	1001.09		3	5	1	3	196	160	1000	1050	94903.620284416	94903.800404208	94903.98026575	94904.220242208	94904.340039833
95072.716282875	5.35	1	95076.466282875	5.344996333005838		95085.066239791	95078.061279208	95078.066282875	95085.066282875	95078.061284458	95085.063608083	7.0	1035.77		3	5	1	3	196	160	1000	1050	94903.620284416	94903.800404208	94903.98026575	94904.220242208	94904.340039833
95072.716282875	5.35	0	95077.216282875	5.344996333005838		95085.066239791	95078.061279208	95078.066282875	95085.066282875	95078.061284458	95085.063608083	7.0	979.34		3	5	1	3	196	160	1000	1050	94903.620284416	94903.800404208	94903.98026575	94904.220242208	94904.340039833
95072.716282875	5.35	0	95077.966282875	5.344996333005838		95085.066239791	95078.061279208	95078.066282875	95085.066282875	95078.061284458	95085.063608083	7.0	982.33		3	5	1	3	196	160	1000	1050	94903.620284416	94903.800404208	94903.98026575	94904.220242208	94904.340039833
95085.08280225	5.35	0	95085.08280225	5.347260374997859		95093.432773	95090.430062625	95090.43280225001	95093.43280225001	95090.430068333	95093.42845175	3.0	977.92		3	4	1	3	197	160	1000	1050	94903.620284416	94903.800404208	94903.98026575	94904.220242208	94904.340039833
95085.08280225	5.35	0	95085.83280225	5.347260374997859		95093.432773	95090.430062625	95090.43280225001	95093.43280225001	95090.430068333	95093.42845175	3.0	954.2		3	4	1	3	197	160	1000	1050	94903.620284416	94903.800404208	94903.98026575	94904.220242208	94904.340039833
95085.08280225	5.35	0	95086.58280225	5.347260374997859		95093.432773	95090.430062625	95090.43280225001	95093.43280225001	95090.430068333	95093.42845175	3.0	967.44		3	4	1	3	197	160	1000	1050	94903.620284416	94903.800404208	94903.98026575	94904.220242208	94904.340039833
95085.08280225	5.35	0	95087.33280225	5.347260374997859		95093.432773	95090.430062625	95090.43280225001	95093.43280225001	95090.430068333	95093.42845175	3.0	965.4		3	4	1	3	197	160	1000	1050	94903.620284416	94903.800404208	94903.98026575	94904.220242208	94904.340039833
95085.08280225	5.35	1	95088.08280225	5.347260374997859		95093.432773	95090.430062625	95090.43280225001	95093.43280225001	95090.430068333	95093.42845175	3.0	1038.06		3	4	1	3	197	160	1000	1050	94903.620284416	94903.800404208	94903.98026575	94904.220242208	94904.340039833
95085.08280225	5.35	0	95088.83280225	5.347260374997859		95093.432773	95090.430062625	95090.43280225001	95093.43280225001	95090.430068333	95093.42845175	3.0	944.69		3	4	1	3	197	160	1000	1050	94903.620284416	94903.800404208	94903.98026575	94904.220242208	94904.340039833
95085.08280225	5.35	0	95089.58280225	5.347260374997859		95093.432773	95090.430062625	95090.43280225001	95093.43280225001	95090.430068333	95093.42845175	3.0	926.94		3	4	1	3	197	160	1000	1050	94903.620284416	94903.800404208	94903.98026575	94904.220242208	94904.340039833
95085.08280225	5.35	0	95090.33280225	5.347260374997859		95093.432773	95090.430062625	95090.43280225001	95093.43280225001	95090.430068333	95093.42845175	3.0	920.82		3	4	1	3	197	160	1000	1050	94903.620284416	94903.800404208	94903.98026575	94904.220242208	94904.340039833
95093.44777295801	5.35	0	95093.44777295801	5.346857707991148		95106.297727833	95098.794630666	95098.79777295802	95106.29777295802	95098.794635041	95106.29391275	7.5	898.39		3	6	1	3	198	160	1000	1050	94903.620284416	94903.800404208	94903.98026575	94904.220242208	94904.340039833
95093.44777295801	5.35	0	95094.19777295801	5.346857707991148		95106.297727833	95098.794630666	95098.79777295802	95106.29777295802	95098.794635041	95106.29391275	7.5	920.32		3	6	1	3	198	160	1000	1050	94903.620284416	94903.800404208	94903.98026575	94904.220242208	94904.340039833
95093.44777295801	5.35	0	95094.94777295801	5.346857707991148		95106.297727833	95098.794630666	95098.79777295802	95106.29777295802	95098.794635041	95106.29391275	7.5	935.83		3	6	1	3	198	160	1000	1050	94903.620284416	94903.800404208	94903.98026575	94904.220242208	94904.340039833
95093.44777295801	5.35	0	95095.69777295801	5.346857707991148		95106.297727833	95098.794630666	95098.79777295802	95106.29777295802	95098.794635041	95106.29391275	7.5	918.79		3	6	1	3	198	160	1000	1050	94903.620284416	94903.800404208	94903.98026575	94904.220242208	94904.340039833
95093.44777295801	5.35	0	95096.44777295801	5.346857707991148		95106.297727833	95098.794630666	95098.79777295802	95106.29777295802	95098.794635041	95106.29391275	7.5	952.39		3	6	1	3	198	160	1000	1050	94903.620284416	94903.800404208	94903.98026575	94904.220242208	94904.340039833
95093.44777295801	5.35	0	95097.19777295801	5.346857707991148		95106.297727833	95098.794630666	95098.79777295802	95106.29777295802	95098.794635041	95106.29391275	7.5	948.09		3	6	1	3	198	160	1000	1050	94903.620284416	94903.800404208	94903.98026575	94904.220242208	94904.340039833
95093.44777295801	5.35	1	95097.94777295801	5.346857707991148		95106.297727833	95098.794630666	95098.79777295802	95106.29777295802	95098.794635041	95106.29391275	7.5	1044.16		3	6	1	3	198	160	1000	1050	94903.620284416	94903.800404208	94903.98026575	94904.220242208	94904.340039833
95093.44777295801	5.35	0	95098.69777295801	5.346857707991148		95106.297727833	95098.794630666	95098.79777295802	95106.29777295802	95098.794635041	95106.29391275	7.5	950.25		3	6	1	3	198	160	1000	1050	94903.620284416	94903.800404208	94903.98026575	94904.220242208	94904.340039833
95106.31210279101	5.35	0	95106.31210279101	5.348933333996683		95117.662062666	95111.661036125	95111.66210279102	95117.66210279102	95111.661045375	95117.661218166	6.0	949.54		3	4	1	3	199	160	1000	1050	94903.620284416	94903.800404208	94903.98026575	94904.220242208	94904.340039833
95106.31210279101	5.35	0	95107.06210279101	5.348933333996683		95117.662062666	95111.661036125	95111.66210279102	95117.66210279102	95111.661045375	95117.661218166	6.0	926.64		3	4	1	3	199	160	1000	1050	94903.620284416	94903.800404208	94903.98026575	94904.220242208	94904.340039833
95106.31210279101	5.35	0	95107.81210279101	5.348933333996683		95117.662062666	95111.661036125	95111.66210279102	95117.66210279102	95111.661045375	95117.661218166	6.0	949.66		3	4	1	3	199	160	1000	1050	94903.620284416	94903.800404208	94903.98026575	94904.220242208	94904.340039833
95106.31210279101	5.35	0	95108.56210279101	5.348933333996683		95117.662062666	95111.661036125	95111.66210279102	95117.66210279102	95111.661045375	95117.661218166	6.0	983.36		3	4	1	3	199	160	1000	1050	94903.620284416	94903.800404208	94903.98026575	94904.220242208	94904.340039833
95106.31210279101	5.35	1	95109.31210279101	5.348933333996683		95117.662062666	95111.661036125	95111.66210279102	95117.66210279102	95111.661045375	95117.661218166	6.0	1038.22		3	4	1	3	199	160	1000	1050	94903.620284416	94903.800404208	94903.98026575	94904.220242208	94904.340039833
95106.31210279101	5.35	0	95110.06210279101	5.348933333996683		95117.662062666	95111.661036125	95111.66210279102	95117.66210279102	95111.661045375	95117.661218166	6.0	954.63		3	4	1	3	199	160	1000	1050	94903.620284416	94903.800404208	94903.98026575	94904.220242208	94904.340039833
95106.31210279101	5.35	0	95110.81210279101	5.348933333996683		95117.662062666	95111.661036125	95111.66210279102	95117.66210279102	95111.661045375	95117.661218166	6.0	945.54		3	4	1	3	199	160	1000	1050	94903.620284416	94903.800404208	94903.98026575	94904.220242208	94904.340039833
95106.31210279101	5.35	0	95111.56210279101	5.348933333996683		95117.662062666	95111.661036125	95111.66210279102	95117.66210279102	95111.661045375	95117.661218166	6.0	972.03		3	4	1	3	199	160	1000	1050	94903.620284416	94903.800404208	94903.98026575	94904.220242208	94904.340039833
95117.68300008301	5.35	0	95117.68300008301	5.344608499988681		95128.532961166	95123.027608583	95123.03300008301	95128.53300008301	95123.027613666	95128.529734375	5.5	980.23		3	6	1	3	200	160	1000	1050	94903.620284416	94903.800404208	94903.98026575	94904.220242208	94904.340039833
95117.68300008301	5.35	0	95118.43300008301	5.344608499988681		95128.532961166	95123.027608583	95123.03300008301	95128.53300008301	95123.027613666	95128.529734375	5.5	953.8		3	6	1	3	200	160	1000	1050	94903.620284416	94903.800404208	94903.98026575	94904.220242208	94904.340039833
95117.68300008301	5.35	0	95119.18300008301	5.344608499988681		95128.532961166	95123.027608583	95123.03300008301	95128.53300008301	95123.027613666	95128.529734375	5.5	990.28		3	6	1	3	200	160	1000	1050	94903.620284416	94903.800404208	94903.98026575	94904.220242208	94904.340039833
95117.68300008301	5.35	0	95119.93300008301	5.344608499988681		95128.532961166	95123.027608583	95123.03300008301	95128.53300008301	95123.027613666	95128.529734375	5.5	974.83		3	6	1	3	200	160	1000	1050	94903.620284416	94903.800404208	94903.98026575	94904.220242208	94904.340039833
95117.68300008301	5.35	0	95120.68300008301	5.344608499988681		95128.532961166	95123.027608583	95123.03300008301	95128.53300008301	95123.027613666	95128.529734375	5.5	1004.77		3	6	1	3	200	160	1000	1050	94903.620284416	94903.800404208	94903.98026575	94904.220242208	94904.340039833
95117.68300008301	5.35	0	95121.43300008301	5.344608499988681		95128.532961166	95123.027608583	95123.03300008301	95128.53300008301	95123.027613666	95128.529734375	5.5	982.55		3	6	1	3	200	160	1000	1050	94903.620284416	94903.800404208	94903.98026575	94904.220242208	94904.340039833
95117.68300008301	5.35	1	95122.18300008301	5.344608499988681		95128.532961166	95123.027608583	95123.03300008301	95128.53300008301	95123.027613666	95128.529734375	5.5	1027.67		3	6	1	3	200	160	1000	1050	94903.620284416	94903.800404208	94903.98026575	94904.220242208	94904.340039833
95117.68300008301	5.35	0	95122.93300008301	5.344608499988681		95128.532961166	95123.027608583	95123.03300008301	95128.53300008301	95123.027613666	95128.529734375	5.5	959.01		3	6	1	3	200	160	1000	1050	94903.620284416	94903.800404208	94903.98026575	94904.220242208	94904.340039833
95128.549211125	5.35	0	95128.549211125	5.345149457993102		95136.8991815	95133.894360583	95133.89921112501	95136.89921112501	95133.894365916	95136.894328541	3.0	963.06		3	4	1	3	201	160	1000	1050	94903.620284416	94903.800404208	94903.98026575	94904.220242208	94904.340039833
95128.549211125	5.35	0	95129.299211125	5.345149457993102		95136.8991815	95133.894360583	95133.89921112501	95136.89921112501	95133.894365916	95136.894328541	3.0	949.96		3	4	1	3	201	160	1000	1050	94903.620284416	94903.800404208	94903.98026575	94904.220242208	94904.340039833
95128.549211125	5.35	0	95130.049211125	5.345149457993102		95136.8991815	95133.894360583	95133.89921112501	95136.89921112501	95133.894365916	95136.894328541	3.0	924.82		3	4	1	3	201	160	1000	1050	94903.620284416	94903.800404208	94903.98026575	94904.220242208	94904.340039833
95128.549211125	5.35	0	95130.799211125	5.345149457993102		95136.8991815	95133.894360583	95133.89921112501	95136.89921112501	95133.894365916	95136.894328541	3.0	919.54		3	4	1	3	201	160	1000	1050	94903.620284416	94903.800404208	94903.98026575	94904.220242208	94904.340039833
95128.549211125	5.35	1	95131.549211125	5.345149457993102		95136.8991815	95133.894360583	95133.89921112501	95136.89921112501	95133.894365916	95136.894328541	3.0	1038.72		3	4	1	3	201	160	1000	1050	94903.620284416	94903.800404208	94903.98026575	94904.220242208	94904.340039833
95128.549211125	5.35	0	95132.299211125	5.345149457993102		95136.8991815	95133.894360583	95133.89921112501	95136.89921112501	95133.894365916	95136.894328541	3.0	922.89		3	4	1	3	201	160	1000	1050	94903.620284416	94903.800404208	94903.98026575	94904.220242208	94904.340039833
95128.549211125	5.35	0	95133.049211125	5.345149457993102		95136.8991815	95133.894360583	95133.89921112501	95136.89921112501	95133.894365916	95136.894328541	3.0	953.42		3	4	1	3	201	160	1000	1050	94903.620284416	94903.800404208	94903.98026575	94904.220242208	94904.340039833
95128.549211125	5.35	0	95133.799211125	5.345149457993102		95136.8991815	95133.894360583	95133.89921112501	95136.89921112501	95133.894365916	95136.894328541	3.0	950.16		3	4	1	3	201	160	1000	1050	94903.620284416	94903.800404208	94903.98026575	94904.220242208	94904.340039833
95136.91605645801	5.35	0	95136.91605645801	5.34711841699027		95146.766021625	95142.263174875	95142.26605645801	95146.76605645801	95142.263181166	95146.760848458	4.5	953.74		3	5	1	3	202	160	1000	1050	94903.620284416	94903.800404208	94903.98026575	94904.220242208	94904.340039833
95136.91605645801	5.35	0	95137.66605645801	5.34711841699027		95146.766021625	95142.263174875	95142.26605645801	95146.76605645801	95142.263181166	95146.760848458	4.5	927.74		3	5	1	3	202	160	1000	1050	94903.620284416	94903.800404208	94903.98026575	94904.220242208	94904.340039833
95136.91605645801	5.35	0	95138.41605645801	5.34711841699027		95146.766021625	95142.263174875	95142.26605645801	95146.76605645801	95142.263181166	95146.760848458	4.5	947.39		3	5	1	3	202	160	1000	1050	94903.620284416	94903.800404208	94903.98026575	94904.220242208	94904.340039833
95136.91605645801	5.35	0	95139.16605645801	5.34711841699027		95146.766021625	95142.263174875	95142.26605645801	95146.76605645801	95142.263181166	95146.760848458	4.5	926.1		3	5	1	3	202	160	1000	1050	94903.620284416	94903.800404208	94903.98026575	94904.220242208	94904.340039833
95136.91605645801	5.35	0	95139.91605645801	5.34711841699027		95146.766021625	95142.263174875	95142.26605645801	95146.76605645801	95142.263181166	95146.760848458	4.5	913.49		3	5	1	3	202	160	1000	1050	94903.620284416	94903.800404208	94903.98026575	94904.220242208	94904.340039833
95136.91605645801	5.35	1	95140.66605645801	5.34711841699027		95146.766021625	95142.263174875	95142.26605645801	95146.76605645801	95142.263181166	95146.760848458	4.5	1034.64		3	5	1	3	202	160	1000	1050	94903.620284416	94903.800404208	94903.98026575	94904.220242208	94904.340039833
95136.91605645801	5.35	0	95141.41605645801	5.34711841699027		95146.766021625	95142.263174875	95142.26605645801	95146.76605645801	95142.263181166	95146.760848458	4.5	900.28		3	5	1	3	202	160	1000	1050	94903.620284416	94903.800404208	94903.98026575	94904.220242208	94904.340039833
95136.91605645801	5.35	0	95142.16605645801	5.34711841699027		95146.766021625	95142.263174875	95142.26605645801	95146.76605645801	95142.263181166	95146.760848458	4.5	892.72		3	5	1	3	202	160	1000	1050	94903.620284416	94903.800404208	94903.98026575	94904.220242208	94904.340039833
95146.78227158301	5.35	0	95146.78227158301	5.3474252079904545		95155.632241083	95152.129696791	95152.13227158302	95155.63227158302	95152.129703666	95155.62765625	3.5	899.05		3	5	1	3	203	160	1000	1050	94903.620284416	94903.800404208	94903.98026575	94904.220242208	94904.340039833
95146.78227158301	5.35	0	95147.53227158301	5.3474252079904545		95155.632241083	95152.129696791	95152.13227158302	95155.63227158302	95152.129703666	95155.62765625	3.5	901.29		3	5	1	3	203	160	1000	1050	94903.620284416	94903.800404208	94903.98026575	94904.220242208	94904.340039833
95146.78227158301	5.35	0	95148.28227158301	5.3474252079904545		95155.632241083	95152.129696791	95152.13227158302	95155.63227158302	95152.129703666	95155.62765625	3.5	923.69		3	5	1	3	203	160	1000	1050	94903.620284416	94903.800404208	94903.98026575	94904.220242208	94904.340039833
95146.78227158301	5.35	0	95149.03227158301	5.3474252079904545		95155.632241083	95152.129696791	95152.13227158302	95155.63227158302	95152.129703666	95155.62765625	3.5	904.81		3	5	1	3	203	160	1000	1050	94903.620284416	94903.800404208	94903.98026575	94904.220242208	94904.340039833
95146.78227158301	5.35	0	95149.78227158301	5.3474252079904545		95155.632241083	95152.129696791	95152.13227158302	95155.63227158302	95152.129703666	95155.62765625	3.5	902.38		3	5	1	3	203	160	1000	1050	94903.620284416	94903.800404208	94903.98026575	94904.220242208	94904.340039833
95146.78227158301	5.35	1	95150.53227158301	5.3474252079904545		95155.632241083	95152.129696791	95152.13227158302	95155.63227158302	95152.129703666	95155.62765625	3.5	1043.97		3	5	1	3	203	160	1000	1050	94903.620284416	94903.800404208	94903.98026575	94904.220242208	94904.340039833
95146.78227158301	5.35	0	95151.28227158301	5.3474252079904545		95155.632241083	95152.129696791	95152.13227158302	95155.63227158302	95152.129703666	95155.62765625	3.5	879.74		3	5	1	3	203	160	1000	1050	94903.620284416	94903.800404208	94903.98026575	94904.220242208	94904.340039833
95146.78227158301	5.35	0	95152.03227158301	5.3474252079904545		95155.632241083	95152.129696791	95152.13227158302	95155.63227158302	95152.129703666	95155.62765625	3.5	905.11		3	5	1	3	203	160	1000	1050	94903.620284416	94903.800404208	94903.98026575	94904.220242208	94904.340039833
95155.64692854101	5.35	0	95155.64692854101	5.349421708990121		95166.996890416	95160.99635025	95160.99692854102	95166.99692854102	95160.996356666	95166.994260333	6.0	923.95		3	6	1	3	204	160	1000	1050	94903.620284416	94903.800404208	94903.98026575	94904.220242208	94904.340039833
95155.64692854101	5.35	0	95156.39692854101	5.349421708990121		95166.996890416	95160.99635025	95160.99692854102	95166.99692854102	95160.996356666	95166.994260333	6.0	927.87		3	6	1	3	204	160	1000	1050	94903.620284416	94903.800404208	94903.98026575	94904.220242208	94904.340039833
95155.64692854101	5.35	0	95157.14692854101	5.349421708990121		95166.996890416	95160.99635025	95160.99692854102	95166.99692854102	95160.996356666	95166.994260333	6.0	903.85		3	6	1	3	204	160	1000	1050	94903.620284416	94903.800404208	94903.98026575	94904.220242208	94904.340039833
95155.64692854101	5.35	0	95157.89692854101	5.349421708990121		95166.996890416	95160.99635025	95160.99692854102	95166.99692854102	95160.996356666	95166.994260333	6.0	924.08		3	6	1	3	204	160	1000	1050	94903.620284416	94903.800404208	94903.98026575	94904.220242208	94904.340039833
95155.64692854101	5.35	0	95158.64692854101	5.349421708990121		95166.996890416	95160.99635025	95160.99692854102	95166.99692854102	95160.996356666	95166.994260333	6.0	924.32		3	6	1	3	204	160	1000	1050	94903.620284416	94903.800404208	94903.98026575	94904.220242208	94904.340039833
95155.64692854101	5.35	0	95159.39692854101	5.349421708990121		95166.996890416	95160.99635025	95160.99692854102	95166.99692854102	95160.996356666	95166.994260333	6.0	903.34		3	6	1	3	204	160	1000	1050	94903.620284416	94903.800404208	94903.98026575	94904.220242208	94904.340039833
95155.64692854101	5.35	1	95160.14692854101	5.349421708990121		95166.996890416	95160.99635025	95160.99692854102	95166.99692854102	95160.996356666	95166.994260333	6.0	1055.88		3	6	1	3	204	160	1000	1050	94903.620284416	94903.800404208	94903.98026575	94904.220242208	94904.340039833
95155.64692854101	5.35	0	95160.89692854101	5.349421708990121		95166.996890416	95160.99635025	95160.99692854102	95166.99692854102	95160.996356666	95166.994260333	6.0	914.16		3	6	1	3	204	160	1000	1050	94903.620284416	94903.800404208	94903.98026575	94904.220242208	94904.340039833
95167.01595287501	5.35	0	95167.01595287501	5.344857540985686		95177.865916	95172.360810416	95172.36595287501	95177.86595287501	95172.36081575	95177.86067175	5.5	931.97		3	5	1	3	205	160	1000	1050	94903.620284416	94903.800404208	94903.98026575	94904.220242208	94904.340039833
95167.01595287501	5.35	0	95167.76595287501	5.344857540985686		95177.865916	95172.360810416	95172.36595287501	95177.86595287501	95172.36081575	95177.86067175	5.5	900.39		3	5	1	3	205	160	1000	1050	94903.620284416	94903.800404208	94903.98026575	94904.220242208	94904.340039833
95167.01595287501	5.35	0	95168.51595287501	5.344857540985686		95177.865916	95172.360810416	95172.36595287501	95177.86595287501	95172.36081575	95177.86067175	5.5	872.45		3	5	1	3	205	160	1000	1050	94903.620284416	94903.800404208	94903.98026575	94904.220242208	94904.340039833
95167.01595287501	5.35	0	95169.26595287501	5.344857540985686		95177.865916	95172.360810416	95172.36595287501	95177.86595287501	95172.36081575	95177.86067175	5.5	887.59		3	5	1	3	205	160	1000	1050	94903.620284416	94903.800404208	94903.98026575	94904.220242208	94904.340039833
95167.01595287501	5.35	0	95170.01595287501	5.344857540985686		95177.865916	95172.360810416	95172.36595287501	95177.86595287501	95172.36081575	95177.86067175	5.5	883.86		3	5	1	3	205	160	1000	1050	94903.620284416	94903.800404208	94903.98026575	94904.220242208	94904.340039833
95167.01595287501	5.35	1	95170.76595287501	5.344857540985686		95177.865916	95172.360810416	95172.36595287501	95177.86595287501	95172.36081575	95177.86067175	5.5	1061.12		3	5	1	3	205	160	1000	1050	94903.620284416	94903.800404208	94903.98026575	94904.220242208	94904.340039833
95167.01595287501	5.35	0	95171.51595287501	5.344857540985686		95177.865916	95172.360810416	95172.36595287501	95177.86595287501	95172.36081575	95177.86067175	5.5	844.63		3	5	1	3	205	160	1000	1050	94903.620284416	94903.800404208	94903.98026575	94904.220242208	94904.340039833
95167.01595287501	5.35	0	95172.26595287501	5.344857540985686		95177.865916	95172.360810416	95172.36595287501	95177.86595287501	95172.36081575	95177.86067175	5.5	868.05		3	5	1	3	205	160	1000	1050	94903.620284416	94903.800404208	94903.98026575	94904.220242208	94904.340039833
95177.88060341601	5.35	0	95177.88060341601	5.347213541987003		95186.230574333	95183.227816958	95183.23060341601	95186.23060341601	95183.227822041	95186.229468583	3.0	846.09		3	4	1	3	206	160	1000	1050	94903.620284416	94903.800404208	94903.98026575	94904.220242208	94904.340039833
95177.88060341601	5.35	0	95178.63060341601	5.347213541987003		95186.230574333	95183.227816958	95183.23060341601	95186.23060341601	95183.227822041	95186.229468583	3.0	847.54		3	4	1	3	206	160	1000	1050	94903.620284416	94903.800404208	94903.98026575	94904.220242208	94904.340039833
95177.88060341601	5.35	0	95179.38060341601	5.347213541987003		95186.230574333	95183.227816958	95183.23060341601	95186.23060341601	95183.227822041	95186.229468583	3.0	852.4		3	4	1	3	206	160	1000	1050	94903.620284416	94903.800404208	94903.98026575	94904.220242208	94904.340039833
95177.88060341601	5.35	0	95180.13060341601	5.347213541987003		95186.230574333	95183.227816958	95183.23060341601	95186.23060341601	95183.227822041	95186.229468583	3.0	862.66		3	4	1	3	206	160	1000	1050	94903.620284416	94903.800404208	94903.98026575	94904.220242208	94904.340039833
95177.88060341601	5.35	1	95180.88060341601	5.347213541987003		95186.230574333	95183.227816958	95183.23060341601	95186.23060341601	95183.227822041	95186.229468583	3.0	1068.96		3	4	1	3	206	160	1000	1050	94903.620284416	94903.800404208	94903.98026575	94904.220242208	94904.340039833
95177.88060341601	5.35	0	95181.63060341601	5.347213541987003		95186.230574333	95183.227816958	95183.23060341601	95186.23060341601	95183.227822041	95186.229468583	3.0	862.35		3	4	1	3	206	160	1000	1050	94903.620284416	94903.800404208	94903.98026575	94904.220242208	94904.340039833
95177.88060341601	5.35	0	95182.38060341601	5.347213541987003		95186.230574333	95183.227816958	95183.23060341601	95186.23060341601	95183.227822041	95186.229468583	3.0	875.75		3	4	1	3	206	160	1000	1050	94903.620284416	94903.800404208	94903.98026575	94904.220242208	94904.340039833
95177.88060341601	5.35	0	95183.13060341601	5.347213541987003		95186.230574333	95183.227816958	95183.23060341601	95186.23060341601	95183.227822041	95186.229468583	3.0	867.38		3	4	1	3	206	160	1000	1050	94903.620284416	94903.800404208	94903.98026575	94904.220242208	94904.340039833
95186.24901175001	5.35	0	95186.24901175001	5.347613624981022		95195.098980416	95191.596625375	95191.59901175002	95195.09901175002	95191.596631666	95195.096570583	3.5	833.4		3	4	1	3	207	160	1000	1050	94903.620284416	94903.800404208	94903.98026575	94904.220242208	94904.340039833
95186.24901175001	5.35	0	95186.99901175001	5.347613624981022		95195.098980416	95191.596625375	95191.59901175002	95195.09901175002	95191.596631666	95195.096570583	3.5	865.17		3	4	1	3	207	160	1000	1050	94903.620284416	94903.800404208	94903.98026575	94904.220242208	94904.340039833
95186.24901175001	5.35	0	95187.74901175001	5.347613624981022		95195.098980416	95191.596625375	95191.59901175002	95195.09901175002	95191.596631666	95195.096570583	3.5	836.36		3	4	1	3	207	160	1000	1050	94903.620284416	94903.800404208	94903.98026575	94904.220242208	94904.340039833
95186.24901175001	5.35	0	95188.49901175001	5.347613624981022		95195.098980416	95191.596625375	95191.59901175002	95195.09901175002	95191.596631666	95195.096570583	3.5	849.74		3	4	1	3	207	160	1000	1050	94903.620284416	94903.800404208	94903.98026575	94904.220242208	94904.340039833
95186.24901175001	5.35	1	95189.24901175001	5.347613624981022		95195.098980416	95191.596625375	95191.59901175002	95195.09901175002	95191.596631666	95195.096570583	3.5	1045.0		3	4	1	3	207	160	1000	1050	94903.620284416	94903.800404208	94903.98026575	94904.220242208	94904.340039833
95186.24901175001	5.35	0	95189.99901175001	5.347613624981022		95195.098980416	95191.596625375	95191.59901175002	95195.09901175002	95191.596631666	95195.096570583	3.5	851.22		3	4	1	3	207	160	1000	1050	94903.620284416	94903.800404208	94903.98026575	94904.220242208	94904.340039833
95186.24901175001	5.35	0	95190.74901175001	5.347613624981022		95195.098980416	95191.596625375	95191.59901175002	95195.09901175002	95191.596631666	95195.096570583	3.5	866.1		3	4	1	3	207	160	1000	1050	94903.620284416	94903.800404208	94903.98026575	94904.220242208	94904.340039833
95186.24901175001	5.35	0	95191.49901175001	5.347613624981022		95195.098980416	95191.596625375	95191.59901175002	95195.09901175002	95191.596631666	95195.096570583	3.5	877.86		3	4	1	3	207	160	1000	1050	94903.620284416	94903.800404208	94903.98026575	94904.220242208	94904.340039833
95195.11585537501	5.35	0	95195.11585537501	5.344760915992083		95203.465826291	95200.460616291	95200.46585537502	95203.46585537502	95200.460621125	95203.46359825	3.0	873.19		3	6	1	3	208	160	1000	1050	94903.620284416	94903.800404208	94903.98026575	94904.220242208	94904.340039833
95195.11585537501	5.35	0	95195.86585537501	5.344760915992083		95203.465826291	95200.460616291	95200.46585537502	95203.46585537502	95200.460621125	95203.46359825	3.0	863.54		3	6	1	3	208	160	1000	1050	94903.620284416	94903.800404208	94903.98026575	94904.220242208	94904.340039833
95195.11585537501	5.35	0	95196.61585537501	5.344760915992083		95203.465826291	95200.460616291	95200.46585537502	95203.46585537502	95200.460621125	95203.46359825	3.0	857.62		3	6	1	3	208	160	1000	1050	94903.620284416	94903.800404208	94903.98026575	94904.220242208	94904.340039833
95195.11585537501	5.35	0	95197.36585537501	5.344760915992083		95203.465826291	95200.460616291	95200.46585537502	95203.46585537502	95200.460621125	95203.46359825	3.0	823.94		3	6	1	3	208	160	1000	1050	94903.620284416	94903.800404208	94903.98026575	94904.220242208	94904.340039833
95195.11585537501	5.35	0	95198.11585537501	5.344760915992083		95203.465826291	95200.460616291	95200.46585537502	95203.46585537502	95200.460621125	95203.46359825	3.0	855.06		3	6	1	3	208	160	1000	1050	94903.620284416	94903.800404208	94903.98026575	94904.220242208	94904.340039833
95195.11585537501	5.35	0	95198.86585537501	5.344760915992083		95203.465826291	95200.460616291	95200.46585537502	95203.46585537502	95200.460621125	95203.46359825	3.0	873.55		3	6	1	3	208	160	1000	1050	94903.620284416	94903.800404208	94903.98026575	94904.220242208	94904.340039833
95195.11585537501	5.35	1	95199.61585537501	5.344760915992083		95203.465826291	95200.460616291	95200.46585537502	95203.46585537502	95200.460621125	95203.46359825	3.0	1031.78		3	6	1	3	208	160	1000	1050	94903.620284416	94903.800404208	94903.98026575	94904.220242208	94904.340039833
95195.11585537501	5.35	0	95200.36585537501	5.344760915992083		95203.465826291	95200.460616291	95200.46585537502	95203.46585537502	95200.460621125	95203.46359825	3.0	851.73		3	6	1	3	208	160	1000	1050	94903.620284416	94903.800404208	94903.98026575	94904.220242208	94904.340039833
95203.48270125	5.35	0	95203.48270125	5.346917666000081		95214.332663	95208.829618916	95208.83270125001	95214.33270125001	95208.829624791	95214.331797958	5.5	879.26		3	2	0	3	209	160	1000	1050	94903.620284416	94903.800404208	94903.98026575	94904.220242208	94904.340039833
95203.48270125	5.35	0	95204.23270125	5.346917666000081		95214.332663	95208.829618916	95208.83270125001	95214.33270125001	95208.829624791	95214.331797958	5.5	859.44		3	2	0	3	209	160	1000	1050	94903.620284416	94903.800404208	94903.98026575	94904.220242208	94904.340039833
95203.48270125	5.35	1	95204.98270125	5.346917666000081		95214.332663	95208.829618916	95208.83270125001	95214.33270125001	95208.829624791	95214.331797958	5.5	1058.43		3	2	0	3	209	160	1000	1050	94903.620284416	94903.800404208	94903.98026575	94904.220242208	94904.340039833
95203.48270125	5.35	0	95205.73270125	5.346917666000081		95214.332663	95208.829618916	95208.83270125001	95214.33270125001	95208.829624791	95214.331797958	5.5	875.5		3	2	0	3	209	160	1000	1050	94903.620284416	94903.800404208	94903.98026575	94904.220242208	94904.340039833
95203.48270125	5.35	0	95206.48270125	5.346917666000081		95214.332663	95208.829618916	95208.83270125001	95214.33270125001	95208.829624791	95214.331797958	5.5	862.9		3	2	0	3	209	160	1000	1050	94903.620284416	94903.800404208	94903.98026575	94904.220242208	94904.340039833
95203.48270125	5.35	0	95207.23270125	5.346917666000081		95214.332663	95208.829618916	95208.83270125001	95214.33270125001	95208.829624791	95214.331797958	5.5	875.86		3	2	0	3	209	160	1000	1050	94903.620284416	94903.800404208	94903.98026575	94904.220242208	94904.340039833
95203.48270125	5.35	0	95207.98270125	5.346917666000081		95214.332663	95208.829618916	95208.83270125001	95214.33270125001	95208.829624791	95214.331797958	5.5	866.0		3	2	0	3	209	160	1000	1050	94903.620284416	94903.800404208	94903.98026575	94904.220242208	94904.340039833
95203.48270125	5.35	0	95208.73270125	5.346917666000081		95214.332663	95208.829618916	95208.83270125001	95214.33270125001	95208.829624791	95214.331797958	5.5	876.04		3	2	0	3	209	160	1000	1050	94903.620284416	94903.800404208	94903.98026575	94904.220242208	94904.340039833
95214.35172541601	5.35	0	95214.35172541601	5.346411666992935		95223.701693083	95219.698137083	95219.70172541602	95223.70172541602	95219.698144208	95223.69820375	4.0	888.8		3	5	1	3	210	160	1000	1050	94903.620284416	94903.800404208	94903.98026575	94904.220242208	94904.340039833
95214.35172541601	5.35	0	95215.10172541601	5.346411666992935		95223.701693083	95219.698137083	95219.70172541602	95223.70172541602	95219.698144208	95223.69820375	4.0	881.02		3	5	1	3	210	160	1000	1050	94903.620284416	94903.800404208	94903.98026575	94904.220242208	94904.340039833
95214.35172541601	5.35	0	95215.85172541601	5.346411666992935		95223.701693083	95219.698137083	95219.70172541602	95223.70172541602	95219.698144208	95223.69820375	4.0	879.27		3	5	1	3	210	160	1000	1050	94903.620284416	94903.800404208	94903.98026575	94904.220242208	94904.340039833
95214.35172541601	5.35	0	95216.60172541601	5.346411666992935		95223.701693083	95219.698137083	95219.70172541602	95223.70172541602	95219.698144208	95223.69820375	4.0	875.92		3	5	1	3	210	160	1000	1050	94903.620284416	94903.800404208	94903.98026575	94904.220242208	94904.340039833
95214.35172541601	5.35	0	95217.35172541601	5.346411666992935		95223.701693083	95219.698137083	95219.70172541602	95223.70172541602	95219.698144208	95223.69820375	4.0	868.36		3	5	1	3	210	160	1000	1050	94903.620284416	94903.800404208	94903.98026575	94904.220242208	94904.340039833
95214.35172541601	5.35	1	95218.10172541601	5.346411666992935		95223.701693083	95219.698137083	95219.70172541602	95223.70172541602	95219.698144208	95223.69820375	4.0	1048.54		3	5	1	3	210	160	1000	1050	94903.620284416	94903.800404208	94903.98026575	94904.220242208	94904.340039833
95214.35172541601	5.35	0	95218.85172541601	5.346411666992935		95223.701693083	95219.698137083	95219.70172541602	95223.70172541602	95219.698144208	95223.69820375	4.0	878.98		3	5	1	3	210	160	1000	1050	94903.620284416	94903.800404208	94903.98026575	94904.220242208	94904.340039833
95214.35172541601	5.35	0	95219.60172541601	5.346411666992935		95223.701693083	95219.698137083	95219.70172541602	95223.70172541602	95219.698144208	95223.69820375	4.0	896.57		3	5	1	3	210	160	1000	1050	94903.620284416	94903.800404208	94903.98026575	94904.220242208	94904.340039833
95223.71763054101	5.35	0	95223.71763054101	5.3477612499846146		95236.56758675	95229.065391791	95229.06763054102	95236.56763054102	95229.06539875	95236.564624333	7.5	871.61		3	5	1	3	211	160	1000	1050	94903.620284416	94903.800404208	94903.98026575	94904.220242208	94904.340039833
95223.71763054101	5.35	0	95224.46763054101	5.3477612499846146		95236.56758675	95229.065391791	95229.06763054102	95236.56763054102	95229.06539875	95236.564624333	7.5	880.68		3	5	1	3	211	160	1000	1050	94903.620284416	94903.800404208	94903.98026575	94904.220242208	94904.340039833
95223.71763054101	5.35	0	95225.21763054101	5.3477612499846146		95236.56758675	95229.065391791	95229.06763054102	95236.56763054102	95229.06539875	95236.564624333	7.5	874.79		3	5	1	3	211	160	1000	1050	94903.620284416	94903.800404208	94903.98026575	94904.220242208	94904.340039833
95223.71763054101	5.35	0	95225.96763054101	5.3477612499846146		95236.56758675	95229.065391791	95229.06763054102	95236.56763054102	95229.06539875	95236.564624333	7.5	867.69		3	5	1	3	211	160	1000	1050	94903.620284416	94903.800404208	94903.98026575	94904.220242208	94904.340039833
95223.71763054101	5.35	0	95226.71763054101	5.3477612499846146		95236.56758675	95229.065391791	95229.06763054102	95236.56763054102	95229.06539875	95236.564624333	7.5	877.92		3	5	1	3	211	160	1000	1050	94903.620284416	94903.800404208	94903.98026575	94904.220242208	94904.340039833
95223.71763054101	5.35	1	95227.46763054101	5.3477612499846146		95236.56758675	95229.065391791	95229.06763054102	95236.56763054102	95229.06539875	95236.564624333	7.5	1042.92		3	5	1	3	211	160	1000	1050	94903.620284416	94903.800404208	94903.98026575	94904.220242208	94904.340039833
95223.71763054101	5.35	0	95228.21763054101	5.3477612499846146		95236.56758675	95229.065391791	95229.06763054102	95236.56763054102	95229.06539875	95236.564624333	7.5	880.48		3	5	1	3	211	160	1000	1050	94903.620284416	94903.800404208	94903.98026575	94904.220242208	94904.340039833
95223.71763054101	5.35	0	95228.96763054101	5.3477612499846146		95236.56758675	95229.065391791	95229.06763054102	95236.56763054102	95229.06539875	95236.564624333	7.5	896.59		3	5	1	3	211	160	1000	1050	94903.620284416	94903.800404208	94903.98026575	94904.220242208	94904.340039833
95236.584149208	5.35	0	95236.584149208	5.34737266699085		95245.434119875	95241.931521875	95241.93414920801	95245.43414920801	95241.931528333	95245.431617875	3.5	916.9		3	2	0	3	212	160	1000	1050	94903.620284416	94903.800404208	94903.98026575	94904.220242208	94904.340039833
95236.584149208	5.35	0	95237.334149208	5.34737266699085		95245.434119875	95241.931521875	95241.93414920801	95245.43414920801	95241.931528333	95245.431617875	3.5	889.51		3	2	0	3	212	160	1000	1050	94903.620284416	94903.800404208	94903.98026575	94904.220242208	94904.340039833
95236.584149208	5.35	1	95238.084149208	5.34737266699085		95245.434119875	95241.931521875	95241.93414920801	95245.43414920801	95241.931528333	95245.431617875	3.5	1029.18		3	2	0	3	212	160	1000	1050	94903.620284416	94903.800404208	94903.98026575	94904.220242208	94904.340039833
95236.584149208	5.35	0	95238.834149208	5.34737266699085		95245.434119875	95241.931521875	95241.93414920801	95245.43414920801	95241.931528333	95245.431617875	3.5	904.02		3	2	0	3	212	160	1000	1050	94903.620284416	94903.800404208	94903.98026575	94904.220242208	94904.340039833
95236.584149208	5.35	0	95239.584149208	5.34737266699085		95245.434119875	95241.931521875	95241.93414920801	95245.43414920801	95241.931528333	95245.431617875	3.5	901.17		3	2	0	3	212	160	1000	1050	94903.620284416	94903.800404208	94903.98026575	94904.220242208	94904.340039833
95236.584149208	5.35	0	95240.334149208	5.34737266699085		95245.434119875	95241.931521875	95241.93414920801	95245.43414920801	95241.931528333	95245.431617875	3.5	921.55		3	2	0	3	212	160	1000	1050	94903.620284416	94903.800404208	94903.98026575	94904.220242208	94904.340039833
95236.584149208	5.35	0	95241.084149208	5.34737266699085		95245.434119875	95241.931521875	95241.93414920801	95245.43414920801	95241.931528333	95245.431617875	3.5	898.11		3	2	0	3	212	160	1000	1050	94903.620284416	94903.800404208	94903.98026575	94904.220242208	94904.340039833
95236.584149208	5.35	0	95241.834149208	5.34737266699085		95245.434119875	95241.931521875	95241.93414920801	95245.43414920801	95241.931528333	95245.431617875	3.5	908.35		3	2	0	3	212	160	1000	1050	94903.620284416	94903.800404208	94903.98026575	94904.220242208	94904.340039833
95245.45099483301	5.35	0	95245.45099483301	5.347795124995173		95257.80095425	95250.798789958	95250.80099483301	95257.80099483301	95250.798796375	95257.79472525	7.0	900.74		4	0	2	3	213	160	1000	1050	94903.620284416	94903.800404208	94903.98026575	94904.220242208	94904.340039833
95245.45099483301	5.35	0	95246.20099483301	5.347795124995173		95257.80095425	95250.798789958	95250.80099483301	95257.80099483301	95250.798796375	95257.79472525	7.0	888.82		4	0	2	3	213	160	1000	1050	94903.620284416	94903.800404208	94903.98026575	94904.220242208	94904.340039833
95245.45099483301	5.35	0	95246.95099483301	5.347795124995173		95257.80095425	95250.798789958	95250.80099483301	95257.80099483301	95250.798796375	95257.79472525	7.0	894.65		4	0	2	3	213	160	1000	1050	94903.620284416	94903.800404208	94903.98026575	94904.220242208	94904.340039833
95245.45099483301	5.35	0	95247.70099483301	5.347795124995173		95257.80095425	95250.798789958	95250.80099483301	95257.80099483301	95250.798796375	95257.79472525	7.0	865.61		4	0	2	3	213	160	1000	1050	94903.620284416	94903.800404208	94903.98026575	94904.220242208	94904.340039833
95245.45099483301	5.35	0	95248.45099483301	5.347795124995173		95257.80095425	95250.798789958	95250.80099483301	95257.80099483301	95250.798796375	95257.79472525	7.0	839.74		4	0	2	3	213	160	1000	1050	94903.620284416	94903.800404208	94903.98026575	94904.220242208	94904.340039833
95245.45099483301	5.35	0	95249.20099483301	5.347795124995173		95257.80095425	95250.798789958	95250.80099483301	95257.80099483301	95250.798796375	95257.79472525	7.0	849.24		4	0	2	3	213	160	1000	1050	94903.620284416	94903.800404208	94903.98026575	94904.220242208	94904.340039833
95245.45099483301	5.35	0	95249.95099483301	5.347795124995173		95257.80095425	95250.798789958	95250.80099483301	95257.80099483301	95250.798796375	95257.79472525	7.0	836.19		4	0	2	3	213	160	1000	1050	94903.620284416	94903.800404208	94903.98026575	94904.220242208	94904.340039833
95245.45099483301	5.35	0	95250.70099483301	5.347795124995173		95257.80095425	95250.798789958	95250.80099483301	95257.80099483301	95250.798796375	95257.79472525	7.0	834.81		4	0	2	3	213	160	1000	1050	94903.620284416	94903.800404208	94903.98026575	94904.220242208	94904.340039833
95257.81595420801	5.35	0	95257.81595420801	5.344703624985414		95268.665917916	95263.160657833	95263.16595420802	95268.66595420802	95263.160663958	95268.660480416	5.5	863.24		3	4	1	3	214	160	1000	1050	94903.620284416	94903.800404208	94903.98026575	94904.220242208	94904.340039833
95257.81595420801	5.35	0	95258.56595420801	5.344703624985414		95268.665917916	95263.160657833	95263.16595420802	95268.66595420802	95263.160663958	95268.660480416	5.5	855.45		3	4	1	3	214	160	1000	1050	94903.620284416	94903.800404208	94903.98026575	94904.220242208	94904.340039833
95257.81595420801	5.35	0	95259.31595420801	5.344703624985414		95268.665917916	95263.160657833	95263.16595420802	95268.66595420802	95263.160663958	95268.660480416	5.5	890.25		3	4	1	3	214	160	1000	1050	94903.620284416	94903.800404208	94903.98026575	94904.220242208	94904.340039833
95257.81595420801	5.35	0	95260.06595420801	5.344703624985414		95268.665917916	95263.160657833	95263.16595420802	95268.66595420802	95263.160663958	95268.660480416	5.5	892.25		3	4	1	3	214	160	1000	1050	94903.620284416	94903.800404208	94903.98026575	94904.220242208	94904.340039833
95257.81595420801	5.35	1	95260.81595420801	5.344703624985414		95268.665917916	95263.160657833	95263.16595420802	95268.66595420802	95263.160663958	95268.660480416	5.5	1041.28		3	4	1	3	214	160	1000	1050	94903.620284416	94903.800404208	94903.98026575	94904.220242208	94904.340039833
95257.81595420801	5.35	0	95261.56595420801	5.344703624985414		95268.665917916	95263.160657833	95263.16595420802	95268.66595420802	95263.160663958	95268.660480416	5.5	869.89		3	4	1	3	214	160	1000	1050	94903.620284416	94903.800404208	94903.98026575	94904.220242208	94904.340039833
95257.81595420801	5.35	0	95262.31595420801	5.344703624985414		95268.665917916	95263.160657833	95263.16595420802	95268.66595420802	95263.160663958	95268.660480416	5.5	859.38		3	4	1	3	214	160	1000	1050	94903.620284416	94903.800404208	94903.98026575	94904.220242208	94904.340039833
95257.81595420801	5.35	0	95263.06595420801	5.344703624985414		95268.665917916	95263.160657833	95263.16595420802	95268.66595420802	95263.160663958	95268.660480416	5.5	870.87		3	4	1	3	214	160	1000	1050	94903.620284416	94903.800404208	94903.98026575	94904.220242208	94904.340039833
95268.679980375	5.35	0	95268.679980375	5.347198457995546		95280.02994225	95274.027178833	95274.02998037501	95280.02998037501	95274.027183666	95280.02780225	6.0	872.42		4	0	2	3	215	160	1000	1050	94903.620284416	94903.800404208	94903.98026575	94904.220242208	94904.340039833
95268.679980375	5.35	0	95269.429980375	5.347198457995546		95280.02994225	95274.027178833	95274.02998037501	95280.02998037501	95274.027183666	95280.02780225	6.0	871.11		4	0	2	3	215	160	1000	1050	94903.620284416	94903.800404208	94903.98026575	94904.220242208	94904.340039833
95268.679980375	5.35	0	95270.179980375	5.347198457995546		95280.02994225	95274.027178833	95274.02998037501	95280.02998037501	95274.027183666	95280.02780225	6.0	827.33		4	0	2	3	215	160	1000	1050	94903.620284416	94903.800404208	94903.98026575	94904.220242208	94904.340039833
95268.679980375	5.35	0	95270.929980375	5.347198457995546		95280.02994225	95274.027178833	95274.02998037501	95280.02998037501	95274.027183666	95280.02780225	6.0	855.73		4	0	2	3	215	160	1000	1050	94903.620284416	94903.800404208	94903.98026575	94904.220242208	94904.340039833
95268.679980375	5.35	0	95271.679980375	5.347198457995546		95280.02994225	95274.027178833	95274.02998037501	95280.02998037501	95274.027183666	95280.02780225	6.0	838.33		4	0	2	3	215	160	1000	1050	94903.620284416	94903.800404208	94903.98026575	94904.220242208	94904.340039833
95268.679980375	5.35	0	95272.429980375	5.347198457995546		95280.02994225	95274.027178833	95274.02998037501	95280.02998037501	95274.027183666	95280.02780225	6.0	842.71		4	0	2	3	215	160	1000	1050	94903.620284416	94903.800404208	94903.98026575	94904.220242208	94904.340039833
95268.679980375	5.35	0	95273.179980375	5.347198457995546		95280.02994225	95274.027178833	95274.02998037501	95280.02998037501	95274.027183666	95280.02780225	6.0	838.49		4	0	2	3	215	160	1000	1050	94903.620284416	94903.800404208	94903.98026575	94904.220242208	94904.340039833
95268.679980375	5.35	0	95273.929980375	5.347198457995546		95280.02994225	95274.027178833	95274.02998037501	95280.02998037501	95274.027183666	95280.02780225	6.0	830.15		4	0	2	3	215	160	1000	1050	94903.620284416	94903.800404208	94903.98026575	94904.220242208	94904.340039833
95280.04775466601	5.35	0	95280.04775466601	5.345880708991899		95292.397715916	95285.393635375	95285.39775466602	95292.39775466602	95285.393640333	95292.391899208	7.0	854.96		3	3	0	3	216	160	1000	1050	94903.620284416	94903.800404208	94903.98026575	94904.220242208	94904.340039833
95280.04775466601	5.35	0	95280.79775466601	5.345880708991899		95292.397715916	95285.393635375	95285.39775466602	95292.39775466602	95285.393640333	95292.391899208	7.0	849.69		3	3	0	3	216	160	1000	1050	94903.620284416	94903.800404208	94903.98026575	94904.220242208	94904.340039833
95280.04775466601	5.35	0	95281.54775466601	5.345880708991899		95292.397715916	95285.393635375	95285.39775466602	95292.39775466602	95285.393640333	95292.391899208	7.0	848.31		3	3	0	3	216	160	1000	1050	94903.620284416	94903.800404208	94903.98026575	94904.220242208	94904.340039833
95280.04775466601	5.35	1	95282.29775466601	5.345880708991899		95292.397715916	95285.393635375	95285.39775466602	95292.39775466602	95285.393640333	95292.391899208	7.0	1022.51		3	3	0	3	216	160	1000	1050	94903.620284416	94903.800404208	94903.98026575	94904.220242208	94904.340039833
95280.04775466601	5.35	0	95283.04775466601	5.345880708991899		95292.397715916	95285.393635375	95285.39775466602	95292.39775466602	95285.393640333	95292.391899208	7.0	850.82		3	3	0	3	216	160	1000	1050	94903.620284416	94903.800404208	94903.98026575	94904.220242208	94904.340039833
95280.04775466601	5.35	0	95283.79775466601	5.345880708991899		95292.397715916	95285.393635375	95285.39775466602	95292.39775466602	95285.393640333	95292.391899208	7.0	858.24		3	3	0	3	216	160	1000	1050	94903.620284416	94903.800404208	94903.98026575	94904.220242208	94904.340039833
95280.04775466601	5.35	0	95284.54775466601	5.345880708991899		95292.397715916	95285.393635375	95285.39775466602	95292.39775466602	95285.393640333	95292.391899208	7.0	852.65		3	3	0	3	216	160	1000	1050	94903.620284416	94903.800404208	94903.98026575	94904.220242208	94904.340039833
95280.04775466601	5.35	0	95285.29775466601	5.345880708991899		95292.397715916	95285.393635375	95285.39775466602	95292.39775466602	95285.393640333	95292.391899208	7.0	857.89		3	3	0	3	216	160	1000	1050	94903.620284416	94903.800404208	94903.98026575	94904.220242208	94904.340039833
95292.411465875	5.35	0	95292.411465875	5.348929165993468		95303.76142875	95297.760395041	95297.76146587501	95303.76146587501	95297.760399958	95303.758955583	6.0	865.87		3	4	0	3	217	160	1000	1050	94903.620284416	94903.800404208	94903.98026575	94904.220242208	94904.340039833
95292.411465875	5.35	0	95293.161465875	5.348929165993468		95303.76142875	95297.760395041	95297.76146587501	95303.76146587501	95297.760399958	95303.758955583	6.0	866.23		3	4	0	3	217	160	1000	1050	94903.620284416	94903.800404208	94903.98026575	94904.220242208	94904.340039833
95292.411465875	5.35	0	95293.911465875	5.348929165993468		95303.76142875	95297.760395041	95297.76146587501	95303.76146587501	95297.760399958	95303.758955583	6.0	852.08		3	4	0	3	217	160	1000	1050	94903.620284416	94903.800404208	94903.98026575	94904.220242208	94904.340039833
95292.411465875	5.35	0	95294.661465875	5.348929165993468		95303.76142875	95297.760395041	95297.76146587501	95303.76146587501	95297.760399958	95303.758955583	6.0	863.45		3	4	0	3	217	160	1000	1050	94903.620284416	94903.800404208	94903.98026575	94904.220242208	94904.340039833
95292.411465875	5.35	1	95295.411465875	5.348929165993468		95303.76142875	95297.760395041	95297.76146587501	95303.76146587501	95297.760399958	95303.758955583	6.0	1018.42		3	4	0	3	217	160	1000	1050	94903.620284416	94903.800404208	94903.98026575	94904.220242208	94904.340039833
95292.411465875	5.35	0	95296.161465875	5.348929165993468		95303.76142875	95297.760395041	95297.76146587501	95303.76146587501	95297.760399958	95303.758955583	6.0	856.28		3	4	0	3	217	160	1000	1050	94903.620284416	94903.800404208	94903.98026575	94904.220242208	94904.340039833
95292.411465875	5.35	0	95296.911465875	5.348929165993468		95303.76142875	95297.760395041	95297.76146587501	95303.76146587501	95297.760399958	95303.758955583	6.0	812.55		3	4	0	3	217	160	1000	1050	94903.620284416	94903.800404208	94903.98026575	94904.220242208	94904.340039833
95292.411465875	5.35	0	95297.661465875	5.348929165993468		95303.76142875	95297.760395041	95297.76146587501	95303.76146587501	95297.760399958	95303.758955583	6.0	840.56		3	4	0	3	217	160	1000	1050	94903.620284416	94903.800404208	94903.98026575	94904.220242208	94904.340039833
95303.77830366601	5.35	0	95303.77830366601	5.347855083993636		95313.128272833	95309.12615875	95309.12830366602	95313.12830366602	95309.126171875	95313.126062333	4.0	848.51		3	4	0	3	218	160	1000	1050	94903.620284416	94903.800404208	94903.98026575	94904.220242208	94904.340039833
95303.77830366601	5.35	0	95304.52830366601	5.347855083993636		95313.128272833	95309.12615875	95309.12830366602	95313.12830366602	95309.126171875	95313.126062333	4.0	866.86		3	4	0	3	218	160	1000	1050	94903.620284416	94903.800404208	94903.98026575	94904.220242208	94904.340039833
95303.77830366601	5.35	0	95305.27830366601	5.347855083993636		95313.128272833	95309.12615875	95309.12830366602	95313.12830366602	95309.126171875	95313.126062333	4.0	857.87		3	4	0	3	218	160	1000	1050	94903.620284416	94903.800404208	94903.98026575	94904.220242208	94904.340039833
95303.77830366601	5.35	0	95306.02830366601	5.347855083993636		95313.128272833	95309.12615875	95309.12830366602	95313.12830366602	95309.126171875	95313.126062333	4.0	836.62		3	4	0	3	218	160	1000	1050	94903.620284416	94903.800404208	94903.98026575	94904.220242208	94904.340039833
95303.77830366601	5.35	1	95306.77830366601	5.347855083993636		95313.128272833	95309.12615875	95309.12830366602	95313.12830366602	95309.126171875	95313.126062333	4.0	990.74		3	4	0	3	218	160	1000	1050	94903.620284416	94903.800404208	94903.98026575	94904.220242208	94904.340039833
95303.77830366601	5.35	0	95307.52830366601	5.347855083993636		95313.128272833	95309.12615875	95309.12830366602	95313.12830366602	95309.126171875	95313.126062333	4.0	829.68		3	4	0	3	218	160	1000	1050	94903.620284416	94903.800404208	94903.98026575	94904.220242208	94904.340039833
95303.77830366601	5.35	0	95308.27830366601	5.347855083993636		95313.128272833	95309.12615875	95309.12830366602	95313.12830366602	95309.126171875	95313.126062333	4.0	844.69		3	4	0	3	218	160	1000	1050	94903.620284416	94903.800404208	94903.98026575	94904.220242208	94904.340039833
95303.77830366601	5.35	0	95309.02830366601	5.347855083993636		95313.128272833	95309.12615875	95309.12830366602	95313.12830366602	95309.126171875	95313.126062333	4.0	870.34		3	4	0	3	218	160	1000	1050	94903.620284416	94903.800404208	94903.98026575	94904.220242208	94904.340039833
95313.14514775001	5.35	0	95313.14514775001	5.347327290990506		95325.495105666	95318.492475041	95318.49514775001	95325.49514775001	95318.492481541	95325.492687041	7.0	871.55		3	3	0	3	219	160	1000	1050	94903.620284416	94903.800404208	94903.98026575	94904.220242208	94904.340039833
95313.14514775001	5.35	0	95313.89514775001	5.347327290990506		95325.495105666	95318.492475041	95318.49514775001	95325.49514775001	95318.492481541	95325.492687041	7.0	888.91		3	3	0	3	219	160	1000	1050	94903.620284416	94903.800404208	94903.98026575	94904.220242208	94904.340039833
95313.14514775001	5.35	0	95314.64514775001	5.347327290990506		95325.495105666	95318.492475041	95318.49514775001	95325.49514775001	95318.492481541	95325.492687041	7.0	918.91		3	3	0	3	219	160	1000	1050	94903.620284416	94903.800404208	94903.98026575	94904.220242208	94904.340039833
95313.14514775001	5.35	1	95315.39514775001	5.347327290990506		95325.495105666	95318.492475041	95318.49514775001	95325.49514775001	95318.492481541	95325.492687041	7.0	1005.62		3	3	0	3	219	160	1000	1050	94903.620284416	94903.800404208	94903.98026575	94904.220242208	94904.340039833
95313.14514775001	5.35	0	95316.14514775001	5.347327290990506		95325.495105666	95318.492475041	95318.49514775001	95325.49514775001	95318.492481541	95325.492687041	7.0	905.33		3	3	0	3	219	160	1000	1050	94903.620284416	94903.800404208	94903.98026575	94904.220242208	94904.340039833
95313.14514775001	5.35	0	95316.89514775001	5.347327290990506		95325.495105666	95318.492475041	95318.49514775001	95325.49514775001	95318.492481541	95325.492687041	7.0	915.74		3	3	0	3	219	160	1000	1050	94903.620284416	94903.800404208	94903.98026575	94904.220242208	94904.340039833
95313.14514775001	5.35	0	95317.64514775001	5.347327290990506		95325.495105666	95318.492475041	95318.49514775001	95325.49514775001	95318.492481541	95325.492687041	7.0	919.84		3	3	0	3	219	160	1000	1050	94903.620284416	94903.800404208	94903.98026575	94904.220242208	94904.340039833
95313.14514775001	5.35	0	95318.39514775001	5.347327290990506		95325.495105666	95318.492475041	95318.49514775001	95325.49514775001	95318.492481541	95325.492687041	7.0	900.7		3	3	0	3	219	160	1000	1050	94903.620284416	94903.800404208	94903.98026575	94904.220242208	94904.340039833
95325.51229308301	5.35	0	95325.51229308301	5.3470737079915125		95337.362251541	95330.859366791	95330.86229308302	95337.36229308302	95330.859374166	95337.362040583	6.5	913.6		4	0	2	3	220	160	1000	1050	94903.620284416	94903.800404208	94903.98026575	94904.220242208	94904.340039833
95325.51229308301	5.35	0	95326.26229308301	5.3470737079915125		95337.362251541	95330.859366791	95330.86229308302	95337.36229308302	95330.859374166	95337.362040583	6.5	925.3		4	0	2	3	220	160	1000	1050	94903.620284416	94903.800404208	94903.98026575	94904.220242208	94904.340039833
95325.51229308301	5.35	0	95327.01229308301	5.3470737079915125		95337.362251541	95330.859366791	95330.86229308302	95337.36229308302	95330.859374166	95337.362040583	6.5	930.75		4	0	2	3	220	160	1000	1050	94903.620284416	94903.800404208	94903.98026575	94904.220242208	94904.340039833
95325.51229308301	5.35	0	95327.76229308301	5.3470737079915125		95337.362251541	95330.859366791	95330.86229308302	95337.36229308302	95330.859374166	95337.362040583	6.5	943.59		4	0	2	3	220	160	1000	1050	94903.620284416	94903.800404208	94903.98026575	94904.220242208	94904.340039833
95325.51229308301	5.35	0	95328.51229308301	5.3470737079915125		95337.362251541	95330.859366791	95330.86229308302	95337.36229308302	95330.859374166	95337.362040583	6.5	910.0		4	0	2	3	220	160	1000	1050	94903.620284416	94903.800404208	94903.98026575	94904.220242208	94904.340039833
95325.51229308301	5.35	0	95329.26229308301	5.3470737079915125		95337.362251541	95330.859366791	95330.86229308302	95337.36229308302	95330.859374166	95337.362040583	6.5	907.35		4	0	2	3	220	160	1000	1050	94903.620284416	94903.800404208	94903.98026575	94904.220242208	94904.340039833
95325.51229308301	5.35	0	95330.01229308301	5.3470737079915125		95337.362251541	95330.859366791	95330.86229308302	95337.36229308302	95330.859374166	95337.362040583	6.5	881.12		4	0	2	3	220	160	1000	1050	94903.620284416	94903.800404208	94903.98026575	94904.220242208	94904.340039833
95325.51229308301	5.35	0	95330.76229308301	5.3470737079915125		95337.362251541	95330.859366791	95330.86229308302	95337.36229308302	95330.859374166	95337.362040583	6.5	900.88		4	0	2	3	220	160	1000	1050	94903.620284416	94903.800404208	94903.98026575	94904.220242208	94904.340039833
95337.3816265	5.35	0	95337.3816265	5.346867790998658		95349.231585833	95342.728494291	95342.73162650001	95349.23162650001	95342.728500333	95349.2281055	6.5	905.14		3	2	0	3	221	160	1000	1050	94903.620284416	94903.800404208	94903.98026575	94904.220242208	94904.340039833
95337.3816265	5.35	0	95338.1316265	5.346867790998658		95349.231585833	95342.728494291	95342.73162650001	95349.23162650001	95342.728500333	95349.2281055	6.5	934.73		3	2	0	3	221	160	1000	1050	94903.620284416	94903.800404208	94903.98026575	94904.220242208	94904.340039833
95337.3816265	5.35	1	95338.8816265	5.346867790998658		95349.231585833	95342.728494291	95342.73162650001	95349.23162650001	95342.728500333	95349.2281055	6.5	1000.68		3	2	0	3	221	160	1000	1050	94903.620284416	94903.800404208	94903.98026575	94904.220242208	94904.340039833
95337.3816265	5.35	0	95339.6316265	5.346867790998658		95349.231585833	95342.728494291	95342.73162650001	95349.23162650001	95342.728500333	95349.2281055	6.5	897.38		3	2	0	3	221	160	1000	1050	94903.620284416	94903.800404208	94903.98026575	94904.220242208	94904.340039833
95337.3816265	5.35	0	95340.3816265	5.346867790998658		95349.231585833	95342.728494291	95342.73162650001	95349.23162650001	95342.728500333	95349.2281055	6.5	880.66		3	2	0	3	221	160	1000	1050	94903.620284416	94903.800404208	94903.98026575	94904.220242208	94904.340039833
95337.3816265	5.35	0	95341.1316265	5.346867790998658		95349.231585833	95342.728494291	95342.73162650001	95349.23162650001	95342.728500333	95349.2281055	6.5	907.5		3	2	0	3	221	160	1000	1050	94903.620284416	94903.800404208	94903.98026575	94904.220242208	94904.340039833
95337.3816265	5.35	0	95341.8816265	5.346867790998658		95349.231585833	95342.728494291	95342.73162650001	95349.23162650001	95342.728500333	95349.2281055	6.5	882.5		3	2	0	3	221	160	1000	1050	94903.620284416	94903.800404208	94903.98026575	94904.220242208	94904.340039833
95337.3816265	5.35	0	95342.6316265	5.346867790998658		95349.231585833	95342.728494291	95342.73162650001	95349.23162650001	95342.728500333	95349.2281055	6.5	892.41		3	2	0	3	221	160	1000	1050	94903.620284416	94903.800404208	94903.98026575	94904.220242208	94904.340039833
95349.24752329101	5.35	0	95349.24752329101	5.347465541999554		95360.0974855	95354.594988833	95354.59752329101	95360.09752329101	95354.594995375	95360.094909291	5.5	883.57		3	5	1	3	222	160	1000	1050	94903.620284416	94903.800404208	94903.98026575	94904.220242208	94904.340039833
95349.24752329101	5.35	0	95349.99752329101	5.347465541999554		95360.0974855	95354.594988833	95354.59752329101	95360.09752329101	95354.594995375	95360.094909291	5.5	854.88		3	5	1	3	222	160	1000	1050	94903.620284416	94903.800404208	94903.98026575	94904.220242208	94904.340039833
95349.24752329101	5.35	0	95350.74752329101	5.347465541999554		95360.0974855	95354.594988833	95354.59752329101	95360.09752329101	95354.594995375	95360.094909291	5.5	877.35		3	5	1	3	222	160	1000	1050	94903.620284416	94903.800404208	94903.98026575	94904.220242208	94904.340039833
95349.24752329101	5.35	0	95351.49752329101	5.347465541999554		95360.0974855	95354.594988833	95354.59752329101	95360.09752329101	95354.594995375	95360.094909291	5.5	883.74		3	5	1	3	222	160	1000	1050	94903.620284416	94903.800404208	94903.98026575	94904.220242208	94904.340039833
95349.24752329101	5.35	0	95352.24752329101	5.347465541999554		95360.0974855	95354.594988833	95354.59752329101	95360.09752329101	95354.594995375	95360.094909291	5.5	912.24		3	5	1	3	222	160	1000	1050	94903.620284416	94903.800404208	94903.98026575	94904.220242208	94904.340039833
95349.24752329101	5.35	1	95352.99752329101	5.347465541999554		95360.0974855	95354.594988833	95354.59752329101	95360.09752329101	95354.594995375	95360.094909291	5.5	982.38		3	5	1	3	222	160	1000	1050	94903.620284416	94903.800404208	94903.98026575	94904.220242208	94904.340039833
95349.24752329101	5.35	0	95353.74752329101	5.347465541999554		95360.0974855	95354.594988833	95354.59752329101	95360.09752329101	95354.594995375	95360.094909291	5.5	870.12		3	5	1	3	222	160	1000	1050	94903.620284416	94903.800404208	94903.98026575	94904.220242208	94904.340039833
95349.24752329101	5.35	0	95354.49752329101	5.347465541999554		95360.0974855	95354.594988833	95354.59752329101	95360.09752329101	95354.594995375	95360.094909291	5.5	879.02		3	5	1	3	222	160	1000	1050	94903.620284416	94903.800404208	94903.98026575	94904.220242208	94904.340039833
95360.11436045801	5.35	0	95360.11436045801	5.347914624988334		95369.964326375	95365.462275083	95365.46436045802	95369.96436045802	95365.462281916	95369.963998583	4.5	873.91		3	6	1	3	223	160	1000	1050	94903.620284416	94903.800404208	94903.98026575	94904.220242208	94904.340039833
95360.11436045801	5.35	0	95360.86436045801	5.347914624988334		95369.964326375	95365.462275083	95365.46436045802	95369.96436045802	95365.462281916	95369.963998583	4.5	861.99		3	6	1	3	223	160	1000	1050	94903.620284416	94903.800404208	94903.98026575	94904.220242208	94904.340039833
95360.11436045801	5.35	0	95361.61436045801	5.347914624988334		95369.964326375	95365.462275083	95365.46436045802	95369.96436045802	95365.462281916	95369.963998583	4.5	906.76		3	6	1	3	223	160	1000	1050	94903.620284416	94903.800404208	94903.98026575	94904.220242208	94904.340039833
95360.11436045801	5.35	0	95362.36436045801	5.347914624988334		95369.964326375	95365.462275083	95365.46436045802	95369.96436045802	95365.462281916	95369.963998583	4.5	898.67		3	6	1	3	223	160	1000	1050	94903.620284416	94903.800404208	94903.98026575	94904.220242208	94904.340039833
95360.11436045801	5.35	0	95363.11436045801	5.347914624988334		95369.964326375	95365.462275083	95365.46436045802	95369.96436045802	95365.462281916	95369.963998583	4.5	920.22		3	6	1	3	223	160	1000	1050	94903.620284416	94903.800404208	94903.98026575	94904.220242208	94904.340039833
95360.11436045801	5.35	0	95363.86436045801	5.347914624988334		95369.964326375	95365.462275083	95365.46436045802	95369.96436045802	95365.462281916	95369.963998583	4.5	914.33		3	6	1	3	223	160	1000	1050	94903.620284416	94903.800404208	94903.98026575	94904.220242208	94904.340039833
95360.11436045801	5.35	1	95364.61436045801	5.347914624988334		95369.964326375	95365.462275083	95365.46436045802	95369.96436045802	95365.462281916	95369.963998583	4.5	977.22		3	6	1	3	223	160	1000	1050	94903.620284416	94903.800404208	94903.98026575	94904.220242208	94904.340039833
95360.11436045801	5.35	0	95365.36436045801	5.347914624988334		95369.964326375	95365.462275083	95365.46436045802	95369.96436045802	95365.462281916	95369.963998583	4.5	900.39		3	6	1	3	223	160	1000	1050	94903.620284416	94903.800404208	94903.98026575	94904.220242208	94904.340039833
95369.99713875001	5.35	0	95369.99713875001	5.3499473329866305		95379.347106625	95375.347086083	95375.34713875002	95379.34713875002	95375.3470875	95379.3461225	4.0	877.19		3	6	1	3	224	160	1000	1050	94903.620284416	94903.800404208	94903.98026575	94904.220242208	94904.340039833
95369.99713875001	5.35	0	95370.74713875001	5.3499473329866305		95379.347106625	95375.347086083	95375.34713875002	95379.34713875002	95375.3470875	95379.3461225	4.0	873.19		3	6	1	3	224	160	1000	1050	94903.620284416	94903.800404208	94903.98026575	94904.220242208	94904.340039833
95369.99713875001	5.35	0	95371.49713875001	5.3499473329866305		95379.347106625	95375.347086083	95375.34713875002	95379.34713875002	95375.3470875	95379.3461225	4.0	885.96		3	6	1	3	224	160	1000	1050	94903.620284416	94903.800404208	94903.98026575	94904.220242208	94904.340039833
95369.99713875001	5.35	0	95372.24713875001	5.3499473329866305		95379.347106625	95375.347086083	95375.34713875002	95379.34713875002	95375.3470875	95379.3461225	4.0	864.21		3	6	1	3	224	160	1000	1050	94903.620284416	94903.800404208	94903.98026575	94904.220242208	94904.340039833
95369.99713875001	5.35	0	95372.99713875001	5.3499473329866305		95379.347106625	95375.347086083	95375.34713875002	95379.34713875002	95375.3470875	95379.3461225	4.0	866.7		3	6	1	3	224	160	1000	1050	94903.620284416	94903.800404208	94903.98026575	94904.220242208	94904.340039833
95369.99713875001	5.35	0	95373.74713875001	5.3499473329866305		95379.347106625	95375.347086083	95375.34713875002	95379.34713875002	95375.3470875	95379.3461225	4.0	883.6		3	6	1	3	224	160	1000	1050	94903.620284416	94903.800404208	94903.98026575	94904.220242208	94904.340039833
95369.99713875001	5.35	1	95374.49713875001	5.3499473329866305		95379.347106625	95375.347086083	95375.34713875002	95379.34713875002	95375.3470875	95379.3461225	4.0	986.15		3	6	1	3	224	160	1000	1050	94903.620284416	94903.800404208	94903.98026575	94904.220242208	94904.340039833
95369.99713875001	5.35	0	95375.24713875001	5.3499473329866305		95379.347106625	95375.347086083	95375.34713875002	95379.34713875002	95375.3470875	95379.3461225	4.0	883.93		3	6	1	3	224	160	1000	1050	94903.620284416	94903.800404208	94903.98026575	94904.220242208	94904.340039833
95379.351169125	5.35	0	95379.351169125	5.349032915997668		95388.201143166	95384.700202041	95384.70116912501	95388.20116912501	95384.700203125	95388.201025666	3.5	893.25		4	0	2	3	225	160	1000	1050	94903.620284416	94903.800404208	94903.98026575	94904.220242208	94904.340039833
