onset	duration	trial_type	onset_tone	duration_imprecise	response_time_imprecise	offset_trial	offset_sound_imprecise	onset_iti	offset_iti	onset_iti_imprecise	offset_iti_imprecise	ITI	frequency	key_pressed	confidence	correct	dpos	rule	runs	trial_no	tau_std	lim_std	lim_dev	trigger_time_1	trigger_time_2	trigger_time_3	trigger_time_4	trigger_time_5
70781.68613125001	5.35	0	70781.68613125001	5.344262207989232	0.5013667919993168	70797.036071833	70787.030393458	70787.03613125002	70797.03613125002	70787.030486833	70797.030173666	10.0	708.4	y	66.0	0	6	1	3	180	240	700	750	70781.019388666	70781.184381375	70781.334363833	70781.499219208	70781.679029625
70781.68613125001	5.35	0	70782.43613125001	5.344262207989232	0.5013667919993168	70797.036071833	70787.030393458	70787.03613125002	70797.03613125002	70787.030486833	70797.030173666	10.0	721.43	y	66.0	0	6	1	3	180	240	700	750	70781.019388666	70781.184381375	70781.334363833	70781.499219208	70781.679029625
70781.68613125001	5.35	0	70783.18613125001	5.344262207989232	0.5013667919993168	70797.036071833	70787.030393458	70787.03613125002	70797.03613125002	70787.030486833	70797.030173666	10.0	707.1	y	66.0	0	6	1	3	180	240	700	750	70781.019388666	70781.184381375	70781.334363833	70781.499219208	70781.679029625
70781.68613125001	5.35	0	70783.93613125001	5.344262207989232	0.5013667919993168	70797.036071833	70787.030393458	70787.03613125002	70797.03613125002	70787.030486833	70797.030173666	10.0	734.36	y	66.0	0	6	1	3	180	240	700	750	70781.019388666	70781.184381375	70781.334363833	70781.499219208	70781.679029625
70781.68613125001	5.35	0	70784.68613125001	5.344262207989232	0.5013667919993168	70797.036071833	70787.030393458	70787.03613125002	70797.03613125002	70787.030486833	70797.030173666	10.0	712.6	y	66.0	0	6	1	3	180	240	700	750	70781.019388666	70781.184381375	70781.334363833	70781.499219208	70781.679029625
70781.68613125001	5.35	0	70785.43613125001	5.344262207989232	0.5013667919993168	70797.036071833	70787.030393458	70787.03613125002	70797.03613125002	70787.030486833	70797.030173666	10.0	707.88	y	66.0	0	6	1	3	180	240	700	750	70781.019388666	70781.184381375	70781.334363833	70781.499219208	70781.679029625
70781.68613125001	5.35	1	70786.18613125001	5.344262207989232	0.5013667919993168	70797.036071833	70787.030393458	70787.03613125002	70797.03613125002	70787.030486833	70797.030173666	10.0	772.6	y	66.0	0	6	1	3	180	240	700	750	70781.019388666	70781.184381375	70781.334363833	70781.499219208	70781.679029625
70781.68613125001	5.35	0	70786.93613125001	5.344262207989232	0.5013667919993168	70797.036071833	70787.030393458	70787.03613125002	70797.03613125002	70787.030486833	70797.030173666	10.0	727.66	y	66.0	0	6	1	3	180	240	700	750	70781.019388666	70781.184381375	70781.334363833	70781.499219208	70781.679029625
70797.049196791	5.35	0	70797.049196791	5.347309208998922		70810.3991425	70802.396506	70802.39919679101	70810.39919679101	70802.396577375	70810.396698291	8.0	716.45			3	5	1	3	181	240	700	750	70781.019388666	70781.184381375	70781.334363833	70781.499219208	70781.679029625
70797.049196791	5.35	0	70797.799196791	5.347309208998922		70810.3991425	70802.396506	70802.39919679101	70810.39919679101	70802.396577375	70810.396698291	8.0	721.03			3	5	1	3	181	240	700	750	70781.019388666	70781.184381375	70781.334363833	70781.499219208	70781.679029625
70797.049196791	5.35	0	70798.549196791	5.347309208998922		70810.3991425	70802.396506	70802.39919679101	70810.39919679101	70802.396577375	70810.396698291	8.0	719.4			3	5	1	3	181	240	700	750	70781.019388666	70781.184381375	70781.334363833	70781.499219208	70781.679029625
70797.049196791	5.35	0	70799.299196791	5.347309208998922		70810.3991425	70802.396506	70802.39919679101	70810.39919679101	70802.396577375	70810.396698291	8.0	720.96			3	5	1	3	181	240	700	750	70781.019388666	70781.184381375	70781.334363833	70781.499219208	70781.679029625
70797.049196791	5.35	0	70800.049196791	5.347309208998922		70810.3991425	70802.396506	70802.39919679101	70810.39919679101	70802.396577375	70810.396698291	8.0	723.39			3	5	1	3	181	240	700	750	70781.019388666	70781.184381375	70781.334363833	70781.499219208	70781.679029625
70797.049196791	5.35	1	70800.799196791	5.347309208998922		70810.3991425	70802.396506	70802.39919679101	70810.39919679101	70802.396577375	70810.396698291	8.0	766.46			3	5	1	3	181	240	700	750	70781.019388666	70781.184381375	70781.334363833	70781.499219208	70781.679029625
70797.049196791	5.35	0	70801.549196791	5.347309208998922		70810.3991425	70802.396506	70802.39919679101	70810.39919679101	70802.396577375	70810.396698291	8.0	705.91			3	5	1	3	181	240	700	750	70781.019388666	70781.184381375	70781.334363833	70781.499219208	70781.679029625
70797.049196791	5.35	0	70802.299196791	5.347309208998922		70810.3991425	70802.396506	70802.39919679101	70810.39919679101	70802.396577375	70810.396698291	8.0	689.2			3	5	1	3	181	240	700	750	70781.019388666	70781.184381375	70781.334363833	70781.499219208	70781.679029625
70810.41632995801	5.35	0	70810.41632995801	5.347079166982439		70825.766266541	70815.763409125	70815.76632995802	70825.76632995802	70815.763486208	70825.763798083	10.0	675.43			3	5	1	3	182	240	700	750	70781.019388666	70781.184381375	70781.334363833	70781.499219208	70781.679029625
70810.41632995801	5.35	0	70811.16632995801	5.347079166982439		70825.766266541	70815.763409125	70815.76632995802	70825.76632995802	70815.763486208	70825.763798083	10.0	685.73			3	5	1	3	182	240	700	750	70781.019388666	70781.184381375	70781.334363833	70781.499219208	70781.679029625
70810.41632995801	5.35	0	70811.91632995801	5.347079166982439		70825.766266541	70815.763409125	70815.76632995802	70825.76632995802	70815.763486208	70825.763798083	10.0	685.57			3	5	1	3	182	240	700	750	70781.019388666	70781.184381375	70781.334363833	70781.499219208	70781.679029625
70810.41632995801	5.35	0	70812.66632995801	5.347079166982439		70825.766266541	70815.763409125	70815.76632995802	70825.76632995802	70815.763486208	70825.763798083	10.0	707.5			3	5	1	3	182	240	700	750	70781.019388666	70781.184381375	70781.334363833	70781.499219208	70781.679029625
70810.41632995801	5.35	0	70813.41632995801	5.347079166982439		70825.766266541	70815.763409125	70815.76632995802	70825.76632995802	70815.763486208	70825.763798083	10.0	710.17			3	5	1	3	182	240	700	750	70781.019388666	70781.184381375	70781.334363833	70781.499219208	70781.679029625
70810.41632995801	5.35	1	70814.16632995801	5.347079166982439		70825.766266541	70815.763409125	70815.76632995802	70825.76632995802	70815.763486208	70825.763798083	10.0	789.19			3	5	1	3	182	240	700	750	70781.019388666	70781.184381375	70781.334363833	70781.499219208	70781.679029625
70810.41632995801	5.35	0	70814.91632995801	5.347079166982439		70825.766266541	70815.763409125	70815.76632995802	70825.76632995802	70815.763486208	70825.763798083	10.0	739.94			3	5	1	3	182	240	700	750	70781.019388666	70781.184381375	70781.334363833	70781.499219208	70781.679029625
70810.41632995801	5.35	0	70815.66632995801	5.347079166982439		70825.766266541	70815.763409125	70815.76632995802	70825.76632995802	70815.763486208	70825.763798083	10.0	734.24			3	5	1	3	182	240	700	750	70781.019388666	70781.184381375	70781.334363833	70781.499219208	70781.679029625
70825.782828958	5.35	0	70825.782828958	5.347971124996548		70841.632763583	70831.130800083	70831.13282895801	70841.63282895801	70831.130891041	70841.630066583	10.5	728.1			3	6	1	3	183	240	700	750	70781.019388666	70781.184381375	70781.334363833	70781.499219208	70781.679029625
70825.782828958	5.35	0	70826.532828958	5.347971124996548		70841.632763583	70831.130800083	70831.13282895801	70841.63282895801	70831.130891041	70841.630066583	10.5	737.4			3	6	1	3	183	240	700	750	70781.019388666	70781.184381375	70781.334363833	70781.499219208	70781.679029625
70825.782828958	5.35	0	70827.282828958	5.347971124996548		70841.632763583	70831.130800083	70831.13282895801	70841.63282895801	70831.130891041	70841.630066583	10.5	706.73			3	6	1	3	183	240	700	750	70781.019388666	70781.184381375	70781.334363833	70781.499219208	70781.679029625
70825.782828958	5.35	0	70828.032828958	5.347971124996548		70841.632763583	70831.130800083	70831.13282895801	70841.63282895801	70831.130891041	70841.630066583	10.5	690.95			3	6	1	3	183	240	700	750	70781.019388666	70781.184381375	70781.334363833	70781.499219208	70781.679029625
70825.782828958	5.35	0	70828.782828958	5.347971124996548		70841.632763583	70831.130800083	70831.13282895801	70841.63282895801	70831.130891041	70841.630066583	10.5	716.62			3	6	1	3	183	240	700	750	70781.019388666	70781.184381375	70781.334363833	70781.499219208	70781.679029625
70825.782828958	5.35	0	70829.532828958	5.347971124996548		70841.632763583	70831.130800083	70831.13282895801	70841.63282895801	70831.130891041	70841.630066583	10.5	722.38			3	6	1	3	183	240	700	750	70781.019388666	70781.184381375	70781.334363833	70781.499219208	70781.679029625
70825.782828958	5.35	1	70830.282828958	5.347971124996548		70841.632763583	70831.130800083	70831.13282895801	70841.63282895801	70831.130891041	70841.630066583	10.5	782.15			3	6	1	3	183	240	700	750	70781.019388666	70781.184381375	70781.334363833	70781.499219208	70781.679029625
70825.782828958	5.35	0	70831.032828958	5.347971124996548		70841.632763583	70831.130800083	70831.13282895801	70841.63282895801	70831.130891041	70841.630066583	10.5	748.84			3	6	1	3	183	240	700	750	70781.019388666	70781.184381375	70781.334363833	70781.499219208	70781.679029625
70841.649638541	5.35	0	70841.649638541	5.345417584001552		70856.999574875	70846.995056125	70846.999638541	70856.999638541	70846.995127541	70856.996687625	10.0	761.5			3	4	1	3	184	240	700	750	70781.019388666	70781.184381375	70781.334363833	70781.499219208	70781.679029625
70841.649638541	5.35	0	70842.399638541	5.345417584001552		70856.999574875	70846.995056125	70846.999638541	70856.999638541	70846.995127541	70856.996687625	10.0	780.42			3	4	1	3	184	240	700	750	70781.019388666	70781.184381375	70781.334363833	70781.499219208	70781.679029625
70841.649638541	5.35	0	70843.149638541	5.345417584001552		70856.999574875	70846.995056125	70846.999638541	70856.999638541	70846.995127541	70856.996687625	10.0	790.77			3	4	1	3	184	240	700	750	70781.019388666	70781.184381375	70781.334363833	70781.499219208	70781.679029625
70841.649638541	5.35	0	70843.899638541	5.345417584001552		70856.999574875	70846.995056125	70846.999638541	70856.999638541	70846.995127541	70856.996687625	10.0	797.33			3	4	1	3	184	240	700	750	70781.019388666	70781.184381375	70781.334363833	70781.499219208	70781.679029625
70841.649638541	5.35	1	70844.649638541	5.345417584001552		70856.999574875	70846.995056125	70846.999638541	70856.999638541	70846.995127541	70856.996687625	10.0	780.44			3	4	1	3	184	240	700	750	70781.019388666	70781.184381375	70781.334363833	70781.499219208	70781.679029625
70841.649638541	5.35	0	70845.399638541	5.345417584001552		70856.999574875	70846.995056125	70846.999638541	70856.999638541	70846.995127541	70856.996687625	10.0	777.81			3	4	1	3	184	240	700	750	70781.019388666	70781.184381375	70781.334363833	70781.499219208	70781.679029625
70841.649638541	5.35	0	70846.149638541	5.345417584001552		70856.999574875	70846.995056125	70846.999638541	70856.999638541	70846.995127541	70856.996687625	10.0	808.46			3	4	1	3	184	240	700	750	70781.019388666	70781.184381375	70781.334363833	70781.499219208	70781.679029625
70841.649638541	5.35	0	70846.899638541	5.345417584001552		70856.999574875	70846.995056125	70846.999638541	70856.999638541	70846.995127541	70856.996687625	10.0	809.39			3	4	1	3	184	240	700	750	70781.019388666	70781.184381375	70781.334363833	70781.499219208	70781.679029625
70857.01519987501	5.35	0	70857.01519987501	5.3463953329919605		70869.865145666	70862.361595208	70862.36519987501	70869.86519987501	70862.361663916	70869.861455333	7.5	821.43			3	5	1	3	185	240	700	750	70781.019388666	70781.184381375	70781.334363833	70781.499219208	70781.679029625
70857.01519987501	5.35	0	70857.76519987501	5.3463953329919605		70869.865145666	70862.361595208	70862.36519987501	70869.86519987501	70862.361663916	70869.861455333	7.5	832.76			3	5	1	3	185	240	700	750	70781.019388666	70781.184381375	70781.334363833	70781.499219208	70781.679029625
70857.01519987501	5.35	0	70858.51519987501	5.3463953329919605		70869.865145666	70862.361595208	70862.36519987501	70869.86519987501	70862.361663916	70869.861455333	7.5	821.02			3	5	1	3	185	240	700	750	70781.019388666	70781.184381375	70781.334363833	70781.499219208	70781.679029625
70857.01519987501	5.35	0	70859.26519987501	5.3463953329919605		70869.865145666	70862.361595208	70862.36519987501	70869.86519987501	70862.361663916	70869.861455333	7.5	811.08			3	5	1	3	185	240	700	750	70781.019388666	70781.184381375	70781.334363833	70781.499219208	70781.679029625
70857.01519987501	5.35	0	70860.01519987501	5.3463953329919605		70869.865145666	70862.361595208	70862.36519987501	70869.86519987501	70862.361663916	70869.861455333	7.5	819.35			3	5	1	3	185	240	700	750	70781.019388666	70781.184381375	70781.334363833	70781.499219208	70781.679029625
70857.01519987501	5.35	1	70860.76519987501	5.3463953329919605		70869.865145666	70862.361595208	70862.36519987501	70869.86519987501	70862.361663916	70869.861455333	7.5	779.94			3	5	1	3	185	240	700	750	70781.019388666	70781.184381375	70781.334363833	70781.499219208	70781.679029625
70857.01519987501	5.35	0	70861.51519987501	5.3463953329919605		70869.865145666	70862.361595208	70862.36519987501	70869.86519987501	70862.361663916	70869.861455333	7.5	797.94			3	5	1	3	185	240	700	750	70781.019388666	70781.184381375	70781.334363833	70781.499219208	70781.679029625
70857.01519987501	5.35	0	70862.26519987501	5.3463953329919605		70869.865145666	70862.361595208	70862.36519987501	70869.86519987501	70862.361663916	70869.861455333	7.5	806.2			3	5	1	3	185	240	700	750	70781.019388666	70781.184381375	70781.334363833	70781.499219208	70781.679029625
70869.881083083	5.35	0	70869.881083083	5.3460109579900745		70886.731010208	70875.227094041	70875.23108308301	70886.73108308301	70875.2271965	70886.729909	11.5	802.88			3	6	1	3	186	240	700	750	70781.019388666	70781.184381375	70781.334363833	70781.499219208	70781.679029625
70869.881083083	5.35	0	70870.631083083	5.3460109579900745		70886.731010208	70875.227094041	70875.23108308301	70886.73108308301	70875.2271965	70886.729909	11.5	801.21			3	6	1	3	186	240	700	750	70781.019388666	70781.184381375	70781.334363833	70781.499219208	70781.679029625
70869.881083083	5.35	0	70871.381083083	5.3460109579900745		70886.731010208	70875.227094041	70875.23108308301	70886.73108308301	70875.2271965	70886.729909	11.5	822.64			3	6	1	3	186	240	700	750	70781.019388666	70781.184381375	70781.334363833	70781.499219208	70781.679029625
70869.881083083	5.35	0	70872.131083083	5.3460109579900745		70886.731010208	70875.227094041	70875.23108308301	70886.73108308301	70875.2271965	70886.729909	11.5	822.06			3	6	1	3	186	240	700	750	70781.019388666	70781.184381375	70781.334363833	70781.499219208	70781.679029625
70869.881083083	5.35	0	70872.881083083	5.3460109579900745		70886.731010208	70875.227094041	70875.23108308301	70886.73108308301	70875.2271965	70886.729909	11.5	814.19			3	6	1	3	186	240	700	750	70781.019388666	70781.184381375	70781.334363833	70781.499219208	70781.679029625
70869.881083083	5.35	0	70873.631083083	5.3460109579900745		70886.731010208	70875.227094041	70875.23108308301	70886.73108308301	70875.2271965	70886.729909	11.5	818.81			3	6	1	3	186	240	700	750	70781.019388666	70781.184381375	70781.334363833	70781.499219208	70781.679029625
70869.881083083	5.35	1	70874.381083083	5.3460109579900745		70886.731010208	70875.227094041	70875.23108308301	70886.73108308301	70875.2271965	70886.729909	11.5	754.53			3	6	1	3	186	240	700	750	70781.019388666	70781.184381375	70781.334363833	70781.499219208	70781.679029625
70869.881083083	5.35	0	70875.131083083	5.3460109579900745		70886.731010208	70875.227094041	70875.23108308301	70886.73108308301	70875.2271965	70886.729909	11.5	759.28			3	6	1	3	186	240	700	750	70781.019388666	70781.184381375	70781.334363833	70781.499219208	70781.679029625
70886.749760125	5.35	0	70886.749760125	5.345158665993949		70900.59969925	70892.094918791	70892.09976012501	70900.59976012501	70892.094987666	70900.596630958	8.5	763.34			3	4	1	3	187	240	700	750	70781.019388666	70781.184381375	70781.334363833	70781.499219208	70781.679029625
70886.749760125	5.35	0	70887.499760125	5.345158665993949		70900.59969925	70892.094918791	70892.09976012501	70900.59976012501	70892.094987666	70900.596630958	8.5	786.2			3	4	1	3	187	240	700	750	70781.019388666	70781.184381375	70781.334363833	70781.499219208	70781.679029625
70886.749760125	5.35	0	70888.249760125	5.345158665993949		70900.59969925	70892.094918791	70892.09976012501	70900.59976012501	70892.094987666	70900.596630958	8.5	756.86			3	4	1	3	187	240	700	750	70781.019388666	70781.184381375	70781.334363833	70781.499219208	70781.679029625
70886.749760125	5.35	0	70888.999760125	5.345158665993949		70900.59969925	70892.094918791	70892.09976012501	70900.59976012501	70892.094987666	70900.596630958	8.5	770.25			3	4	1	3	187	240	700	750	70781.019388666	70781.184381375	70781.334363833	70781.499219208	70781.679029625
70886.749760125	5.35	1	70889.749760125	5.345158665993949		70900.59969925	70892.094918791	70892.09976012501	70900.59976012501	70892.094987666	70900.596630958	8.5	781.57			3	4	1	3	187	240	700	750	70781.019388666	70781.184381375	70781.334363833	70781.499219208	70781.679029625
70886.749760125	5.35	0	70890.499760125	5.345158665993949		70900.59969925	70892.094918791	70892.09976012501	70900.59976012501	70892.094987666	70900.596630958	8.5	774.19			3	4	1	3	187	240	700	750	70781.019388666	70781.184381375	70781.334363833	70781.499219208	70781.679029625
70886.749760125	5.35	0	70891.249760125	5.345158665993949		70900.59969925	70892.094918791	70892.09976012501	70900.59976012501	70892.094987666	70900.596630958	8.5	769.22			3	4	1	3	187	240	700	750	70781.019388666	70781.184381375	70781.334363833	70781.499219208	70781.679029625
70886.749760125	5.35	0	70891.999760125	5.345158665993949		70900.59969925	70892.094918791	70892.09976012501	70900.59976012501	70892.094987666	70900.596630958	8.5	767.36			3	4	1	3	187	240	700	750	70781.019388666	70781.184381375	70781.334363833	70781.499219208	70781.679029625
70900.61563670801	5.35	0	70900.61563670801	5.345985291991383		70913.4655815	70905.961622	70905.96563670802	70913.46563670802	70905.961694208	70913.461365916	7.5	765.97			3	4	1	3	188	240	700	750	70781.019388666	70781.184381375	70781.334363833	70781.499219208	70781.679029625
70900.61563670801	5.35	0	70901.36563670801	5.345985291991383		70913.4655815	70905.961622	70905.96563670802	70913.46563670802	70905.961694208	70913.461365916	7.5	764.84			3	4	1	3	188	240	700	750	70781.019388666	70781.184381375	70781.334363833	70781.499219208	70781.679029625
70900.61563670801	5.35	0	70902.11563670801	5.345985291991383		70913.4655815	70905.961622	70905.96563670802	70913.46563670802	70905.961694208	70913.461365916	7.5	743.82			3	4	1	3	188	240	700	750	70781.019388666	70781.184381375	70781.334363833	70781.499219208	70781.679029625
70900.61563670801	5.35	0	70902.86563670801	5.345985291991383		70913.4655815	70905.961622	70905.96563670802	70913.46563670802	70905.961694208	70913.461365916	7.5	759.42			3	4	1	3	188	240	700	750	70781.019388666	70781.184381375	70781.334363833	70781.499219208	70781.679029625
70900.61563670801	5.35	1	70903.61563670801	5.345985291991383		70913.4655815	70905.961622	70905.96563670802	70913.46563670802	70905.961694208	70913.461365916	7.5	749.03			3	4	1	3	188	240	700	750	70781.019388666	70781.184381375	70781.334363833	70781.499219208	70781.679029625
70900.61563670801	5.35	0	70904.36563670801	5.345985291991383		70913.4655815	70905.961622	70905.96563670802	70913.46563670802	70905.961694208	70913.461365916	7.5	765.45			3	4	1	3	188	240	700	750	70781.019388666	70781.184381375	70781.334363833	70781.499219208	70781.679029625
70900.61563670801	5.35	0	70905.11563670801	5.345985291991383		70913.4655815	70905.961622	70905.96563670802	70913.46563670802	70905.961694208	70913.461365916	7.5	750.48			3	4	1	3	188	240	700	750	70781.019388666	70781.184381375	70781.334363833	70781.499219208	70781.679029625
70900.61563670801	5.35	0	70905.86563670801	5.345985291991383		70913.4655815	70905.961622	70905.96563670802	70913.46563670802	70905.961694208	70913.461365916	7.5	759.79			3	4	1	3	188	240	700	750	70781.019388666	70781.184381375	70781.334363833	70781.499219208	70781.679029625
70913.48089395801	5.35	0	70913.48089395801	5.348781416993006		70927.330833041	70918.829675375	70918.83089395802	70927.33089395802	70918.829752208	70927.327967958	8.5	722.1			3	4	1	3	189	240	700	750	70781.019388666	70781.184381375	70781.334363833	70781.499219208	70781.679029625
70913.48089395801	5.35	0	70914.23089395801	5.348781416993006		70927.330833041	70918.829675375	70918.83089395802	70927.33089395802	70918.829752208	70927.327967958	8.5	723.96			3	4	1	3	189	240	700	750	70781.019388666	70781.184381375	70781.334363833	70781.499219208	70781.679029625
70913.48089395801	5.35	0	70914.98089395801	5.348781416993006		70927.330833041	70918.829675375	70918.83089395802	70927.33089395802	70918.829752208	70927.327967958	8.5	712.36			3	4	1	3	189	240	700	750	70781.019388666	70781.184381375	70781.334363833	70781.499219208	70781.679029625
70913.48089395801	5.35	0	70915.73089395801	5.348781416993006		70927.330833041	70918.829675375	70918.83089395802	70927.33089395802	70918.829752208	70927.327967958	8.5	723.62			3	4	1	3	189	240	700	750	70781.019388666	70781.184381375	70781.334363833	70781.499219208	70781.679029625
70913.48089395801	5.35	1	70916.48089395801	5.348781416993006		70927.330833041	70918.829675375	70918.83089395802	70927.33089395802	70918.829752208	70927.327967958	8.5	765.04			3	4	1	3	189	240	700	750	70781.019388666	70781.184381375	70781.334363833	70781.499219208	70781.679029625
70913.48089395801	5.35	0	70917.23089395801	5.348781416993006		70927.330833041	70918.829675375	70918.83089395802	70927.33089395802	70918.829752208	70927.327967958	8.5	738.59			3	4	1	3	189	240	700	750	70781.019388666	70781.184381375	70781.334363833	70781.499219208	70781.679029625
70913.48089395801	5.35	0	70917.98089395801	5.348781416993006		70927.330833041	70918.829675375	70918.83089395802	70927.33089395802	70918.829752208	70927.327967958	8.5	765.98			3	4	1	3	189	240	700	750	70781.019388666	70781.184381375	70781.334363833	70781.499219208	70781.679029625
70913.48089395801	5.35	0	70918.73089395801	5.348781416993006		70927.330833041	70918.829675375	70918.83089395802	70927.33089395802	70918.829752208	70927.327967958	8.5	761.13			3	4	1	3	189	240	700	750	70781.019388666	70781.184381375	70781.334363833	70781.499219208	70781.679029625
70927.34864545801	5.35	0	70927.34864545801	5.347277666980517		70942.698576	70932.695923125	70932.69864545802	70942.69864545802	70932.696001541	70942.696726583	10.0	794.61			3	4	0	3	190	240	700	750	70781.019388666	70781.184381375	70781.334363833	70781.499219208	70781.679029625
70927.34864545801	5.35	0	70928.09864545801	5.347277666980517		70942.698576	70932.695923125	70932.69864545802	70942.69864545802	70932.696001541	70942.696726583	10.0	799.44			3	4	0	3	190	240	700	750	70781.019388666	70781.184381375	70781.334363833	70781.499219208	70781.679029625
70927.34864545801	5.35	0	70928.84864545801	5.347277666980517		70942.698576	70932.695923125	70932.69864545802	70942.69864545802	70932.696001541	70942.696726583	10.0	775.36			3	4	0	3	190	240	700	750	70781.019388666	70781.184381375	70781.334363833	70781.499219208	70781.679029625
70927.34864545801	5.35	0	70929.59864545801	5.347277666980517		70942.698576	70932.695923125	70932.69864545802	70942.69864545802	70932.696001541	70942.696726583	10.0	769.98			3	4	0	3	190	240	700	750	70781.019388666	70781.184381375	70781.334363833	70781.499219208	70781.679029625
70927.34864545801	5.35	1	70930.34864545801	5.347277666980517		70942.698576	70932.695923125	70932.69864545802	70942.69864545802	70932.696001541	70942.696726583	10.0	751.11			3	4	0	3	190	240	700	750	70781.019388666	70781.184381375	70781.334363833	70781.499219208	70781.679029625
70927.34864545801	5.35	0	70931.09864545801	5.347277666980517		70942.698576	70932.695923125	70932.69864545802	70942.69864545802	70932.696001541	70942.696726583	10.0	779.83			3	4	0	3	190	240	700	750	70781.019388666	70781.184381375	70781.334363833	70781.499219208	70781.679029625
70927.34864545801	5.35	0	70931.84864545801	5.347277666980517		70942.698576	70932.695923125	70932.69864545802	70942.69864545802	70932.696001541	70942.696726583	10.0	789.51			3	4	0	3	190	240	700	750	70781.019388666	70781.184381375	70781.334363833	70781.499219208	70781.679029625
70927.34864545801	5.35	0	70932.59864545801	5.347277666980517		70942.698576	70932.695923125	70932.69864545802	70942.69864545802	70932.696001541	70942.696726583	10.0	762.32			3	4	0	3	190	240	700	750	70781.019388666	70781.184381375	70781.334363833	70781.499219208	70781.679029625
70942.715763458	5.35	0	70942.715763458	5.3456124999938766		70959.06569025	70948.061375958	70948.06576345801	70959.06576345801	70948.061439916	70959.062707666	11.0	779.46			3	2	0	3	191	240	700	750	70781.019388666	70781.184381375	70781.334363833	70781.499219208	70781.679029625
70942.715763458	5.35	0	70943.465763458	5.3456124999938766		70959.06569025	70948.061375958	70948.06576345801	70959.06576345801	70948.061439916	70959.062707666	11.0	803.48			3	2	0	3	191	240	700	750	70781.019388666	70781.184381375	70781.334363833	70781.499219208	70781.679029625
70942.715763458	5.35	1	70944.215763458	5.3456124999938766		70959.06569025	70948.061375958	70948.06576345801	70959.06576345801	70948.061439916	70959.062707666	11.0	731.17			3	2	0	3	191	240	700	750	70781.019388666	70781.184381375	70781.334363833	70781.499219208	70781.679029625
70942.715763458	5.35	0	70944.965763458	5.3456124999938766		70959.06569025	70948.061375958	70948.06576345801	70959.06576345801	70948.061439916	70959.062707666	11.0	824.91			3	2	0	3	191	240	700	750	70781.019388666	70781.184381375	70781.334363833	70781.499219208	70781.679029625
70942.715763458	5.35	0	70945.715763458	5.3456124999938766		70959.06569025	70948.061375958	70948.06576345801	70959.06576345801	70948.061439916	70959.062707666	11.0	822.24			3	2	0	3	191	240	700	750	70781.019388666	70781.184381375	70781.334363833	70781.499219208	70781.679029625
70942.715763458	5.35	0	70946.465763458	5.3456124999938766		70959.06569025	70948.061375958	70948.06576345801	70959.06576345801	70948.061439916	70959.062707666	11.0	780.96			3	2	0	3	191	240	700	750	70781.019388666	70781.184381375	70781.334363833	70781.499219208	70781.679029625
70942.715763458	5.35	0	70947.215763458	5.3456124999938766		70959.06569025	70948.061375958	70948.06576345801	70959.06576345801	70948.061439916	70959.062707666	11.0	815.34			3	2	0	3	191	240	700	750	70781.019388666	70781.184381375	70781.334363833	70781.499219208	70781.679029625
70942.715763458	5.35	0	70947.965763458	5.3456124999938766		70959.06569025	70948.061375958	70948.06576345801	70959.06576345801	70948.061439916	70959.062707666	11.0	791.12			3	2	0	3	191	240	700	750	70781.019388666	70781.184381375	70781.334363833	70781.499219208	70781.679029625
70959.08194016601	5.35	0	70959.08194016601	5.34601945898612		70973.931874	70964.427959625	70964.43194016602	70973.93194016602	70964.428023041	70973.929927541	9.5	809.9			3	4	0	3	192	240	700	750	70781.019388666	70781.184381375	70781.334363833	70781.499219208	70781.679029625
70959.08194016601	5.35	0	70959.83194016601	5.34601945898612		70973.931874	70964.427959625	70964.43194016602	70973.93194016602	70964.428023041	70973.929927541	9.5	784.16			3	4	0	3	192	240	700	750	70781.019388666	70781.184381375	70781.334363833	70781.499219208	70781.679029625
70959.08194016601	5.35	0	70960.58194016601	5.34601945898612		70973.931874	70964.427959625	70964.43194016602	70973.93194016602	70964.428023041	70973.929927541	9.5	801.13			3	4	0	3	192	240	700	750	70781.019388666	70781.184381375	70781.334363833	70781.499219208	70781.679029625
70959.08194016601	5.35	0	70961.33194016601	5.34601945898612		70973.931874	70964.427959625	70964.43194016602	70973.93194016602	70964.428023041	70973.929927541	9.5	784.12			3	4	0	3	192	240	700	750	70781.019388666	70781.184381375	70781.334363833	70781.499219208	70781.679029625
70959.08194016601	5.35	1	70962.08194016601	5.34601945898612		70973.931874	70964.427959625	70964.43194016602	70973.93194016602	70964.428023041	70973.929927541	9.5	723.65			3	4	0	3	192	240	700	750	70781.019388666	70781.184381375	70781.334363833	70781.499219208	70781.679029625
70959.08194016601	5.35	0	70962.83194016601	5.34601945898612		70973.931874	70964.427959625	70964.43194016602	70973.93194016602	70964.428023041	70973.929927541	9.5	802.41			3	4	0	3	192	240	700	750	70781.019388666	70781.184381375	70781.334363833	70781.499219208	70781.679029625
70959.08194016601	5.35	0	70963.58194016601	5.34601945898612		70973.931874	70964.427959625	70964.43194016602	70973.93194016602	70964.428023041	70973.929927541	9.5	797.56			3	4	0	3	192	240	700	750	70781.019388666	70781.184381375	70781.334363833	70781.499219208	70781.679029625
70959.08194016601	5.35	0	70964.33194016601	5.34601945898612		70973.931874	70964.427959625	70964.43194016602	70973.93194016602	70964.428023041	70973.929927541	9.5	794.21			3	4	0	3	192	240	700	750	70781.019388666	70781.184381375	70781.334363833	70781.499219208	70781.679029625
70973.949061416	5.35	0	70973.949061416	5.346883499994874		70989.798991666	70979.295944916	70979.29906141601	70989.79906141601	70979.296018916	70989.795637041	10.5	767.67			3	4	0	3	193	240	700	750	70781.019388666	70781.184381375	70781.334363833	70781.499219208	70781.679029625
70973.949061416	5.35	0	70974.699061416	5.346883499994874		70989.798991666	70979.295944916	70979.29906141601	70989.79906141601	70979.296018916	70989.795637041	10.5	748.72			3	4	0	3	193	240	700	750	70781.019388666	70781.184381375	70781.334363833	70781.499219208	70781.679029625
70973.949061416	5.35	0	70975.449061416	5.346883499994874		70989.798991666	70979.295944916	70979.29906141601	70989.79906141601	70979.296018916	70989.795637041	10.5	762.4			3	4	0	3	193	240	700	750	70781.019388666	70781.184381375	70781.334363833	70781.499219208	70781.679029625
70973.949061416	5.35	0	70976.199061416	5.346883499994874		70989.798991666	70979.295944916	70979.29906141601	70989.79906141601	70979.296018916	70989.795637041	10.5	755.96			3	4	0	3	193	240	700	750	70781.019388666	70781.184381375	70781.334363833	70781.499219208	70781.679029625
70973.949061416	5.35	1	70976.949061416	5.346883499994874		70989.798991666	70979.295944916	70979.29906141601	70989.79906141601	70979.296018916	70989.795637041	10.5	732.69			3	4	0	3	193	240	700	750	70781.019388666	70781.184381375	70781.334363833	70781.499219208	70781.679029625
70973.949061416	5.35	0	70977.699061416	5.346883499994874		70989.798991666	70979.295944916	70979.29906141601	70989.79906141601	70979.296018916	70989.795637041	10.5	716.85			3	4	0	3	193	240	700	750	70781.019388666	70781.184381375	70781.334363833	70781.499219208	70781.679029625
70973.949061416	5.35	0	70978.449061416	5.346883499994874		70989.798991666	70979.295944916	70979.29906141601	70989.79906141601	70979.296018916	70989.795637041	10.5	709.81			3	4	0	3	193	240	700	750	70781.019388666	70781.184381375	70781.334363833	70781.499219208	70781.679029625
70973.949061416	5.35	0	70979.199061416	5.346883499994874		70989.798991666	70979.295944916	70979.29906141601	70989.79906141601	70979.296018916	70989.795637041	10.5	745.04			3	4	0	3	193	240	700	750	70781.019388666	70781.184381375	70781.334363833	70781.499219208	70781.679029625
70989.813679125	5.35	0	70989.813679125	5.349398666003253		71003.663617833	70995.163077791	70995.163679125	71003.663679125	70995.163163375	71003.663294041	8.5	733.77			3	3	0	3	194	240	700	750	70781.019388666	70781.184381375	70781.334363833	70781.499219208	70781.679029625
70989.813679125	5.35	0	70990.563679125	5.349398666003253		71003.663617833	70995.163077791	70995.163679125	71003.663679125	70995.163163375	71003.663294041	8.5	757.21			3	3	0	3	194	240	700	750	70781.019388666	70781.184381375	70781.334363833	70781.499219208	70781.679029625
70989.813679125	5.35	0	70991.313679125	5.349398666003253		71003.663617833	70995.163077791	70995.163679125	71003.663679125	70995.163163375	71003.663294041	8.5	736.44			3	3	0	3	194	240	700	750	70781.019388666	70781.184381375	70781.334363833	70781.499219208	70781.679029625
70989.813679125	5.35	1	70992.063679125	5.349398666003253		71003.663617833	70995.163077791	70995.163679125	71003.663679125	70995.163163375	71003.663294041	8.5	696.32			3	3	0	3	194	240	700	750	70781.019388666	70781.184381375	70781.334363833	70781.499219208	70781.679029625
70989.813679125	5.35	0	70992.813679125	5.349398666003253		71003.663617833	70995.163077791	70995.163679125	71003.663679125	70995.163163375	71003.663294041	8.5	738.86			3	3	0	3	194	240	700	750	70781.019388666	70781.184381375	70781.334363833	70781.499219208	70781.679029625
70989.813679125	5.35	0	70993.563679125	5.349398666003253		71003.663617833	70995.163077791	70995.163679125	71003.663679125	70995.163163375	71003.663294041	8.5	757.29			3	3	0	3	194	240	700	750	70781.019388666	70781.184381375	70781.334363833	70781.499219208	70781.679029625
70989.813679125	5.35	0	70994.313679125	5.349398666003253		71003.663617833	70995.163077791	70995.163679125	71003.663679125	70995.163163375	71003.663294041	8.5	779.66			3	3	0	3	194	240	700	750	70781.019388666	70781.184381375	70781.334363833	70781.499219208	70781.679029625
70989.813679125	5.35	0	70995.063679125	5.349398666003253		71003.663617833	70995.163077791	70995.163679125	71003.663679125	70995.163163375	71003.663294041	8.5	777.37			3	3	0	3	194	240	700	750	70781.019388666	70781.184381375	70781.334363833	70781.499219208	70781.679029625
71003.68361775001	5.35	0	71003.68361775001	5.3473898749944055		71016.533560791	71009.031007625	71009.03361775001	71016.53361775001	71009.031113583	71016.528988333	7.5	764.27			3	3	0	3	195	240	700	750	70781.019388666	70781.184381375	70781.334363833	70781.499219208	70781.679029625
71003.68361775001	5.35	0	71004.43361775001	5.3473898749944055		71016.533560791	71009.031007625	71009.03361775001	71016.53361775001	71009.031113583	71016.528988333	7.5	788.76			3	3	0	3	195	240	700	750	70781.019388666	70781.184381375	70781.334363833	70781.499219208	70781.679029625
71003.68361775001	5.35	0	71005.18361775001	5.3473898749944055		71016.533560791	71009.031007625	71009.03361775001	71016.53361775001	71009.031113583	71016.528988333	7.5	782.45			3	3	0	3	195	240	700	750	70781.019388666	70781.184381375	70781.334363833	70781.499219208	70781.679029625
71003.68361775001	5.35	1	71005.93361775001	5.3473898749944055		71016.533560791	71009.031007625	71009.03361775001	71016.53361775001	71009.031113583	71016.528988333	7.5	730.24			3	3	0	3	195	240	700	750	70781.019388666	70781.184381375	70781.334363833	70781.499219208	70781.679029625
71003.68361775001	5.35	0	71006.68361775001	5.3473898749944055		71016.533560791	71009.031007625	71009.03361775001	71016.53361775001	71009.031113583	71016.528988333	7.5	776.43			3	3	0	3	195	240	700	750	70781.019388666	70781.184381375	70781.334363833	70781.499219208	70781.679029625
71003.68361775001	5.35	0	71007.43361775001	5.3473898749944055		71016.533560791	71009.031007625	71009.03361775001	71016.53361775001	71009.031113583	71016.528988333	7.5	784.44			3	3	0	3	195	240	700	750	70781.019388666	70781.184381375	70781.334363833	70781.499219208	70781.679029625
71003.68361775001	5.35	0	71008.18361775001	5.3473898749944055		71016.533560791	71009.031007625	71009.03361775001	71016.53361775001	71009.031113583	71016.528988333	7.5	764.51			3	3	0	3	195	240	700	750	70781.019388666	70781.184381375	70781.334363833	70781.499219208	70781.679029625
71003.68361775001	5.35	0	71008.93361775001	5.3473898749944055		71016.533560791	71009.031007625	71009.03361775001	71016.53361775001	71009.031113583	71016.528988333	7.5	787.85			3	3	0	3	195	240	700	750	70781.019388666	70781.184381375	70781.334363833	70781.499219208	70781.679029625
71016.546685708	5.35	0	71016.546685708	5.346276333002606		71028.896632125	71021.892962041	71021.89668570801	71028.89668570801	71021.893054541	71028.896683541	7.0	761.37			3	3	0	3	196	240	700	750	70781.019388666	70781.184381375	70781.334363833	70781.499219208	70781.679029625
71016.546685708	5.35	0	71017.296685708	5.346276333002606		71028.896632125	71021.892962041	71021.89668570801	71028.89668570801	71021.893054541	71028.896683541	7.0	748.15			3	3	0	3	196	240	700	750	70781.019388666	70781.184381375	70781.334363833	70781.499219208	70781.679029625
71016.546685708	5.35	0	71018.046685708	5.346276333002606		71028.896632125	71021.892962041	71021.89668570801	71028.89668570801	71021.893054541	71028.896683541	7.0	775.21			3	3	0	3	196	240	700	750	70781.019388666	70781.184381375	70781.334363833	70781.499219208	70781.679029625
71016.546685708	5.35	1	71018.796685708	5.346276333002606		71028.896632125	71021.892962041	71021.89668570801	71028.89668570801	71021.893054541	71028.896683541	7.0	746.11			3	3	0	3	196	240	700	750	70781.019388666	70781.184381375	70781.334363833	70781.499219208	70781.679029625
71016.546685708	5.35	0	71019.546685708	5.346276333002606		71028.896632125	71021.892962041	71021.89668570801	71028.89668570801	71021.893054541	71028.896683541	7.0	765.62			3	3	0	3	196	240	700	750	70781.019388666	70781.184381375	70781.334363833	70781.499219208	70781.679029625
71016.546685708	5.35	0	71020.296685708	5.346276333002606		71028.896632125	71021.892962041	71021.89668570801	71028.89668570801	71021.893054541	71028.896683541	7.0	760.43			3	3	0	3	196	240	700	750	70781.019388666	70781.184381375	70781.334363833	70781.499219208	70781.679029625
71016.546685708	5.35	0	71021.046685708	5.346276333002606		71028.896632125	71021.892962041	71021.89668570801	71028.89668570801	71021.893054541	71028.896683541	7.0	739.2			3	3	0	3	196	240	700	750	70781.019388666	70781.184381375	70781.334363833	70781.499219208	70781.679029625
71016.546685708	5.35	0	71021.796685708	5.346276333002606		71028.896632125	71021.892962041	71021.89668570801	71028.89668570801	71021.893054541	71028.896683541	7.0	724.7			3	3	0	3	196	240	700	750	70781.019388666	70781.184381375	70781.334363833	70781.499219208	70781.679029625
71028.90163212501	5.35	0	71028.90163212501	5.348717915985617		71042.751578208	71034.250350041	71034.25163212502	71042.75163212502	71034.250425541	71042.750993375	8.5	754.15			4	0	2	3	197	240	700	750	70781.019388666	70781.184381375	70781.334363833	70781.499219208	70781.679029625
71028.90163212501	5.35	0	71029.65163212501	5.348717915985617		71042.751578208	71034.250350041	71034.25163212502	71042.75163212502	71034.250425541	71042.750993375	8.5	735.49			4	0	2	3	197	240	700	750	70781.019388666	70781.184381375	70781.334363833	70781.499219208	70781.679029625
71028.90163212501	5.35	0	71030.40163212501	5.348717915985617		71042.751578208	71034.250350041	71034.25163212502	71042.75163212502	71034.250425541	71042.750993375	8.5	752.0			4	0	2	3	197	240	700	750	70781.019388666	70781.184381375	70781.334363833	70781.499219208	70781.679029625
71028.90163212501	5.35	0	71031.15163212501	5.348717915985617		71042.751578208	71034.250350041	71034.25163212502	71042.75163212502	71034.250425541	71042.750993375	8.5	755.47			4	0	2	3	197	240	700	750	70781.019388666	70781.184381375	70781.334363833	70781.499219208	70781.679029625
71028.90163212501	5.35	0	71031.90163212501	5.348717915985617		71042.751578208	71034.250350041	71034.25163212502	71042.75163212502	71034.250425541	71042.750993375	8.5	760.13			4	0	2	3	197	240	700	750	70781.019388666	70781.184381375	70781.334363833	70781.499219208	70781.679029625
71028.90163212501	5.35	0	71032.65163212501	5.348717915985617		71042.751578208	71034.250350041	71034.25163212502	71042.75163212502	71034.250425541	71042.750993375	8.5	737.63			4	0	2	3	197	240	700	750	70781.019388666	70781.184381375	70781.334363833	70781.499219208	70781.679029625
71028.90163212501	5.35	0	71033.40163212501	5.348717915985617		71042.751578208	71034.250350041	71034.25163212502	71042.75163212502	71034.250425541	71042.750993375	8.5	739.32			4	0	2	3	197	240	700	750	70781.019388666	70781.184381375	70781.334363833	70781.499219208	70781.679029625
71028.90163212501	5.35	0	71034.15163212501	5.348717915985617		71042.751578208	71034.250350041	71034.25163212502	71042.75163212502	71034.250425541	71042.750993375	8.5	740.23			4	0	2	3	197	240	700	750	70781.019388666	70781.184381375	70781.334363833	70781.499219208	70781.679029625
71042.75782816601	5.35	0	71042.75782816601	5.348414874984883		71058.607767375	71048.106243041	71048.10782816602	71058.60782816602	71048.106329875	71058.606670125	10.5	735.96			3	2	0	3	198	240	700	750	70781.019388666	70781.184381375	70781.334363833	70781.499219208	70781.679029625
71042.75782816601	5.35	0	71043.50782816601	5.348414874984883		71058.607767375	71048.106243041	71048.10782816602	71058.60782816602	71048.106329875	71058.606670125	10.5	736.23			3	2	0	3	198	240	700	750	70781.019388666	70781.184381375	70781.334363833	70781.499219208	70781.679029625
71042.75782816601	5.35	1	71044.25782816601	5.348414874984883		71058.607767375	71048.106243041	71048.10782816602	71058.60782816602	71048.106329875	71058.606670125	10.5	735.79			3	2	0	3	198	240	700	750	70781.019388666	70781.184381375	70781.334363833	70781.499219208	70781.679029625
71042.75782816601	5.35	0	71045.00782816601	5.348414874984883		71058.607767375	71048.106243041	71048.10782816602	71058.60782816602	71048.106329875	71058.606670125	10.5	777.35			3	2	0	3	198	240	700	750	70781.019388666	70781.184381375	70781.334363833	70781.499219208	70781.679029625
71042.75782816601	5.35	0	71045.75782816601	5.348414874984883		71058.607767375	71048.106243041	71048.10782816602	71058.60782816602	71048.106329875	71058.606670125	10.5	757.32			3	2	0	3	198	240	700	750	70781.019388666	70781.184381375	70781.334363833	70781.499219208	70781.679029625
71042.75782816601	5.35	0	71046.50782816601	5.348414874984883		71058.607767375	71048.106243041	71048.10782816602	71058.60782816602	71048.106329875	71058.606670125	10.5	770.52			3	2	0	3	198	240	700	750	70781.019388666	70781.184381375	70781.334363833	70781.499219208	70781.679029625
71042.75782816601	5.35	0	71047.25782816601	5.348414874984883		71058.607767375	71048.106243041	71048.10782816602	71058.60782816602	71048.106329875	71058.606670125	10.5	754.64			3	2	0	3	198	240	700	750	70781.019388666	70781.184381375	70781.334363833	70781.499219208	70781.679029625
71042.75782816601	5.35	0	71048.00782816601	5.348414874984883		71058.607767375	71048.106243041	71048.10782816602	71058.60782816602	71048.106329875	71058.606670125	10.5	770.01			3	2	0	3	198	240	700	750	70781.019388666	70781.184381375	70781.334363833	70781.499219208	70781.679029625
71058.617454833	5.35	0	71058.617454833	5.348917166993488		71075.467391333	71063.966372	71063.96745483301	71075.46745483301	71063.966463	71075.4670795	11.5	759.42			3	3	0	3	199	240	700	750	70781.019388666	70781.184381375	70781.334363833	70781.499219208	70781.679029625
71058.617454833	5.35	0	71059.367454833	5.348917166993488		71075.467391333	71063.966372	71063.96745483301	71075.46745483301	71063.966463	71075.4670795	11.5	744.5			3	3	0	3	199	240	700	750	70781.019388666	70781.184381375	70781.334363833	70781.499219208	70781.679029625
71058.617454833	5.35	0	71060.117454833	5.348917166993488		71075.467391333	71063.966372	71063.96745483301	71075.46745483301	71063.966463	71075.4670795	11.5	758.01			3	3	0	3	199	240	700	750	70781.019388666	70781.184381375	70781.334363833	70781.499219208	70781.679029625
71058.617454833	5.35	1	71060.867454833	5.348917166993488		71075.467391333	71063.966372	71063.96745483301	71075.46745483301	71063.966463	71075.4670795	11.5	690.26			3	3	0	3	199	240	700	750	70781.019388666	70781.184381375	70781.334363833	70781.499219208	70781.679029625
71058.617454833	5.35	0	71061.617454833	5.348917166993488		71075.467391333	71063.966372	71063.96745483301	71075.46745483301	71063.966463	71075.4670795	11.5	745.54			3	3	0	3	199	240	700	750	70781.019388666	70781.184381375	70781.334363833	70781.499219208	70781.679029625
71058.617454833	5.35	0	71062.367454833	5.348917166993488		71075.467391333	71063.966372	71063.96745483301	71075.46745483301	71063.966463	71075.4670795	11.5	742.11			3	3	0	3	199	240	700	750	70781.019388666	70781.184381375	70781.334363833	70781.499219208	70781.679029625
71058.617454833	5.35	0	71063.117454833	5.348917166993488		71075.467391333	71063.966372	71063.96745483301	71075.46745483301	71063.966463	71075.4670795	11.5	735.36			3	3	0	3	199	240	700	750	70781.019388666	70781.184381375	70781.334363833	70781.499219208	70781.679029625
71058.617454833	5.35	0	71063.867454833	5.348917166993488		71075.467391333	71063.966372	71063.96745483301	71075.46745483301	71063.966463	71075.4670795	11.5	721.7			3	3	0	3	199	240	700	750	70781.019388666	70781.184381375	70781.334363833	70781.499219208	70781.679029625
71075.474266125	5.35	0	71075.474266125	5.348274666001089		71087.8242185	71080.822540791	71080.82426612501	71087.82426612501	71080.822611875	71087.822155208	7.0	725.37			3	4	0	3	200	240	700	750	70781.019388666	70781.184381375	70781.334363833	70781.499219208	70781.679029625
71075.474266125	5.35	0	71076.224266125	5.348274666001089		71087.8242185	71080.822540791	71080.82426612501	71087.82426612501	71080.822611875	71087.822155208	7.0	714.22			3	4	0	3	200	240	700	750	70781.019388666	70781.184381375	70781.334363833	70781.499219208	70781.679029625
71075.474266125	5.35	0	71076.974266125	5.348274666001089		71087.8242185	71080.822540791	71080.82426612501	71087.82426612501	71080.822611875	71087.822155208	7.0	671.73			3	4	0	3	200	240	700	750	70781.019388666	70781.184381375	70781.334363833	70781.499219208	70781.679029625
71075.474266125	5.35	0	71077.724266125	5.348274666001089		71087.8242185	71080.822540791	71080.82426612501	71087.82426612501	71080.822611875	71087.822155208	7.0	721.07			3	4	0	3	200	240	700	750	70781.019388666	70781.184381375	70781.334363833	70781.499219208	70781.679029625
71075.474266125	5.35	1	71078.474266125	5.348274666001089		71087.8242185	71080.822540791	71080.82426612501	71087.82426612501	71080.822611875	71087.822155208	7.0	720.72			3	4	0	3	200	240	700	750	70781.019388666	70781.184381375	70781.334363833	70781.499219208	70781.679029625
71075.474266125	5.35	0	71079.224266125	5.348274666001089		71087.8242185	71080.822540791	71080.82426612501	71087.82426612501	71080.822611875	71087.822155208	7.0	692.51			3	4	0	3	200	240	700	750	70781.019388666	70781.184381375	70781.334363833	70781.499219208	70781.679029625
71075.474266125	5.35	0	71079.974266125	5.348274666001089		71087.8242185	71080.822540791	71080.82426612501	71087.82426612501	71080.822611875	71087.822155208	7.0	704.34			3	4	0	3	200	240	700	750	70781.019388666	70781.184381375	70781.334363833	70781.499219208	70781.679029625
71075.474266125	5.35	0	71080.724266125	5.348274666001089		71087.8242185	71080.822540791	71080.82426612501	71087.82426612501	71080.822611875	71087.822155208	7.0	672.08			3	4	0	3	200	240	700	750	70781.019388666	70781.184381375	70781.334363833	70781.499219208	70781.679029625
71087.829843458	5.35	0	71087.829843458	5.347819582995726		71104.179780833	71093.177663041	71093.17984345801	71104.17984345801	71093.17774975	71104.178945541	11.0	672.49			3	2	0	3	201	240	700	750	70781.019388666	70781.184381375	70781.334363833	70781.499219208	70781.679029625
71087.829843458	5.35	0	71088.579843458	5.347819582995726		71104.179780833	71093.177663041	71093.17984345801	71104.17984345801	71093.17774975	71104.178945541	11.0	693.33			3	2	0	3	201	240	700	750	70781.019388666	70781.184381375	70781.334363833	70781.499219208	70781.679029625
71087.829843458	5.35	1	71089.329843458	5.347819582995726		71104.179780833	71093.177663041	71093.17984345801	71104.17984345801	71093.17774975	71104.178945541	11.0	697.65			3	2	0	3	201	240	700	750	70781.019388666	70781.184381375	70781.334363833	70781.499219208	70781.679029625
71087.829843458	5.35	0	71090.079843458	5.347819582995726		71104.179780833	71093.177663041	71093.17984345801	71104.17984345801	71093.17774975	71104.178945541	11.0	663.37			3	2	0	3	201	240	700	750	70781.019388666	70781.184381375	70781.334363833	70781.499219208	70781.679029625
71087.829843458	5.35	0	71090.829843458	5.347819582995726		71104.179780833	71093.177663041	71093.17984345801	71104.17984345801	71093.17774975	71104.178945541	11.0	661.05			3	2	0	3	201	240	700	750	70781.019388666	70781.184381375	70781.334363833	70781.499219208	70781.679029625
71087.829843458	5.35	0	71091.579843458	5.347819582995726		71104.179780833	71093.177663041	71093.17984345801	71104.17984345801	71093.17774975	71104.178945541	11.0	676.03			3	2	0	3	201	240	700	750	70781.019388666	70781.184381375	70781.334363833	70781.499219208	70781.679029625
71087.829843458	5.35	0	71092.329843458	5.347819582995726		71104.179780833	71093.177663041	71093.17984345801	71104.17984345801	71093.17774975	71104.178945541	11.0	646.01			3	2	0	3	201	240	700	750	70781.019388666	70781.184381375	70781.334363833	70781.499219208	70781.679029625
71087.829843458	5.35	0	71093.079843458	5.347819582995726		71104.179780833	71093.177663041	71093.17984345801	71104.17984345801	71093.17774975	71104.178945541	11.0	650.99			3	2	0	3	201	240	700	750	70781.019388666	70781.184381375	70781.334363833	70781.499219208	70781.679029625
71104.18634325001	5.35	0	71104.18634325001	5.349735457988572		71117.536293041	71109.536078708	71109.53634325002	71117.53634325002	71109.536154333	71117.535701125	8.0	668.05			3	2	0	3	202	240	700	750	70781.019388666	70781.184381375	70781.334363833	70781.499219208	70781.679029625
71104.18634325001	5.35	0	71104.93634325001	5.349735457988572		71117.536293041	71109.536078708	71109.53634325002	71117.53634325002	71109.536154333	71117.535701125	8.0	658.63			3	2	0	3	202	240	700	750	70781.019388666	70781.184381375	70781.334363833	70781.499219208	70781.679029625
71104.18634325001	5.35	1	71105.68634325001	5.349735457988572		71117.536293041	71109.536078708	71109.53634325002	71117.53634325002	71109.536154333	71117.535701125	8.0	723.77			3	2	0	3	202	240	700	750	70781.019388666	70781.184381375	70781.334363833	70781.499219208	70781.679029625
71104.18634325001	5.35	0	71106.43634325001	5.349735457988572		71117.536293041	71109.536078708	71109.53634325002	71117.53634325002	71109.536154333	71117.535701125	8.0	639.21			3	2	0	3	202	240	700	750	70781.019388666	70781.184381375	70781.334363833	70781.499219208	70781.679029625
71104.18634325001	5.35	0	71107.18634325001	5.349735457988572		71117.536293041	71109.536078708	71109.53634325002	71117.53634325002	71109.536154333	71117.535701125	8.0	603.57			3	2	0	3	202	240	700	750	70781.019388666	70781.184381375	70781.334363833	70781.499219208	70781.679029625
71104.18634325001	5.35	0	71107.93634325001	5.349735457988572		71117.536293041	71109.536078708	71109.53634325002	71117.53634325002	71109.536154333	71117.535701125	8.0	590.06			3	2	0	3	202	240	700	750	70781.019388666	70781.184381375	70781.334363833	70781.499219208	70781.679029625
71104.18634325001	5.35	0	71108.68634325001	5.349735457988572		71117.536293041	71109.536078708	71109.53634325002	71117.53634325002	71109.536154333	71117.535701125	8.0	606.32			3	2	0	3	202	240	700	750	70781.019388666	70781.184381375	70781.334363833	70781.499219208	70781.679029625
71104.18634325001	5.35	0	71109.43634325001	5.349735457988572		71117.536293041	71109.536078708	71109.53634325002	71117.53634325002	71109.536154333	71117.535701125	8.0	615.99			3	2	0	3	202	240	700	750	70781.019388666	70781.184381375	70781.334363833	70781.499219208	70781.679029625
71117.54285550001	5.35	0	71117.54285550001	5.348049457985326		71134.39279204099	71122.890904958	71122.89285550002	71134.39285550002	71122.89099275	71134.389906458	11.5	622.84			3	2	0	3	203	240	700	750	70781.019388666	70781.184381375	70781.334363833	70781.499219208	70781.679029625
71117.54285550001	5.35	0	71118.29285550001	5.348049457985326		71134.39279204099	71122.890904958	71122.89285550002	71134.39285550002	71122.89099275	71134.389906458	11.5	608.05			3	2	0	3	203	240	700	750	70781.019388666	70781.184381375	70781.334363833	70781.499219208	70781.679029625
71117.54285550001	5.35	1	71119.04285550001	5.348049457985326		71134.39279204099	71122.890904958	71122.89285550002	71134.39285550002	71122.89099275	71134.389906458	11.5	715.07			3	2	0	3	203	240	700	750	70781.019388666	70781.184381375	70781.334363833	70781.499219208	70781.679029625
71117.54285550001	5.35	0	71119.79285550001	5.348049457985326		71134.39279204099	71122.890904958	71122.89285550002	71134.39285550002	71122.89099275	71134.389906458	11.5	625.09			3	2	0	3	203	240	700	750	70781.019388666	70781.184381375	70781.334363833	70781.499219208	70781.679029625
71117.54285550001	5.35	0	71120.54285550001	5.348049457985326		71134.39279204099	71122.890904958	71122.89285550002	71134.39285550002	71122.89099275	71134.389906458	11.5	634.92			3	2	0	3	203	240	700	750	70781.019388666	70781.184381375	70781.334363833	70781.499219208	70781.679029625
71117.54285550001	5.35	0	71121.29285550001	5.348049457985326		71134.39279204099	71122.890904958	71122.89285550002	71134.39285550002	71122.89099275	71134.389906458	11.5	650.98			3	2	0	3	203	240	700	750	70781.019388666	70781.184381375	70781.334363833	70781.499219208	70781.679029625
71117.54285550001	5.35	0	71122.04285550001	5.348049457985326		71134.39279204099	71122.890904958	71122.89285550002	71134.39285550002	71122.89099275	71134.389906458	11.5	615.13			3	2	0	3	203	240	700	750	70781.019388666	70781.184381375	70781.334363833	70781.499219208	70781.679029625
71117.54285550001	5.35	0	71122.79285550001	5.348049457985326		71134.39279204099	71122.890904958	71122.89285550002	71134.39285550002	71122.89099275	71134.389906458	11.5	626.98			3	2	0	3	203	240	700	750	70781.019388666	70781.184381375	70781.334363833	70781.499219208	70781.679029625
71134.398729541	5.35	0	71134.398729541	5.349735666997731		71149.2486735	71139.748465208	71139.74872954101	71149.24872954101	71139.748545166	71149.247438083	9.5	674.0			3	2	0	3	204	240	700	750	70781.019388666	70781.184381375	70781.334363833	70781.499219208	70781.679029625
71134.398729541	5.35	0	71135.148729541	5.349735666997731		71149.2486735	71139.748465208	71139.74872954101	71149.24872954101	71139.748545166	71149.247438083	9.5	669.53			3	2	0	3	204	240	700	750	70781.019388666	70781.184381375	70781.334363833	70781.499219208	70781.679029625
71134.398729541	5.35	1	71135.898729541	5.349735666997731		71149.2486735	71139.748465208	71139.74872954101	71149.24872954101	71139.748545166	71149.247438083	9.5	701.71			3	2	0	3	204	240	700	750	70781.019388666	70781.184381375	70781.334363833	70781.499219208	70781.679029625
71134.398729541	5.35	0	71136.648729541	5.349735666997731		71149.2486735	71139.748465208	71139.74872954101	71149.24872954101	71139.748545166	71149.247438083	9.5	660.25			3	2	0	3	204	240	700	750	70781.019388666	70781.184381375	70781.334363833	70781.499219208	70781.679029625
71134.398729541	5.35	0	71137.398729541	5.349735666997731		71149.2486735	71139.748465208	71139.74872954101	71149.24872954101	71139.748545166	71149.247438083	9.5	628.3			3	2	0	3	204	240	700	750	70781.019388666	70781.184381375	70781.334363833	70781.499219208	70781.679029625
71134.398729541	5.35	0	71138.148729541	5.349735666997731		71149.2486735	71139.748465208	71139.74872954101	71149.24872954101	71139.748545166	71149.247438083	9.5	638.3			3	2	0	3	204	240	700	750	70781.019388666	70781.184381375	70781.334363833	70781.499219208	70781.679029625
71134.398729541	5.35	0	71138.898729541	5.349735666997731		71149.2486735	71139.748465208	71139.74872954101	71149.24872954101	71139.748545166	71149.247438083	9.5	649.59			3	2	0	3	204	240	700	750	70781.019388666	70781.184381375	70781.334363833	70781.499219208	70781.679029625
71134.398729541	5.35	0	71139.648729541	5.349735666997731		71149.2486735	71139.748465208	71139.74872954101	71149.24872954101	71139.748545166	71149.247438083	9.5	645.57			3	2	0	3	204	240	700	750	70781.019388666	70781.184381375	70781.334363833	70781.499219208	70781.679029625
71149.254298458	5.35	0	71149.254298458	5.347693749994505		71163.60424375	71154.601992208	71154.60429845801	71163.60429845801	71154.602072166	71163.602169791	9.0	625.03			3	4	0	3	205	240	700	750	70781.019388666	70781.184381375	70781.334363833	70781.499219208	70781.679029625
71149.254298458	5.35	0	71150.004298458	5.347693749994505		71163.60424375	71154.601992208	71154.60429845801	71163.60429845801	71154.602072166	71163.602169791	9.0	617.63			3	4	0	3	205	240	700	750	70781.019388666	70781.184381375	70781.334363833	70781.499219208	70781.679029625
71149.254298458	5.35	0	71150.754298458	5.347693749994505		71163.60424375	71154.601992208	71154.60429845801	71163.60429845801	71154.602072166	71163.602169791	9.0	610.27			3	4	0	3	205	240	700	750	70781.019388666	70781.184381375	70781.334363833	70781.499219208	70781.679029625
71149.254298458	5.35	0	71151.504298458	5.347693749994505		71163.60424375	71154.601992208	71154.60429845801	71163.60429845801	71154.602072166	71163.602169791	9.0	628.84			3	4	0	3	205	240	700	750	70781.019388666	70781.184381375	70781.334363833	70781.499219208	70781.679029625
71149.254298458	5.35	1	71152.254298458	5.347693749994505		71163.60424375	71154.601992208	71154.60429845801	71163.60429845801	71154.602072166	71163.602169791	9.0	721.54			3	4	0	3	205	240	700	750	70781.019388666	70781.184381375	70781.334363833	70781.499219208	70781.679029625
71149.254298458	5.35	0	71153.004298458	5.347693749994505		71163.60424375	71154.601992208	71154.60429845801	71163.60429845801	71154.602072166	71163.602169791	9.0	621.44			3	4	0	3	205	240	700	750	70781.019388666	70781.184381375	70781.334363833	70781.499219208	70781.679029625
71149.254298458	5.35	0	71153.754298458	5.347693749994505		71163.60424375	71154.601992208	71154.60429845801	71163.60429845801	71154.602072166	71163.602169791	9.0	642.88			3	4	0	3	205	240	700	750	70781.019388666	70781.184381375	70781.334363833	70781.499219208	70781.679029625
71149.254298458	5.35	0	71154.504298458	5.347693749994505		71163.60424375	71154.601992208	71154.60429845801	71163.60429845801	71154.602072166	71163.602169791	9.0	622.14			3	4	0	3	205	240	700	750	70781.019388666	70781.184381375	70781.334363833	70781.499219208	70781.679029625
71163.60924370801	5.35	0	71163.60924370801	5.348226207992411		71176.45919475	71168.957469916	71168.95924370801	71176.45924370801	71168.957549125	71176.457448375	7.5	637.5			3	3	0	3	206	240	700	750	70781.019388666	70781.184381375	70781.334363833	70781.499219208	70781.679029625
71163.60924370801	5.35	0	71164.35924370801	5.348226207992411		71176.45919475	71168.957469916	71168.95924370801	71176.45924370801	71168.957549125	71176.457448375	7.5	618.11			3	3	0	3	206	240	700	750	70781.019388666	70781.184381375	70781.334363833	70781.499219208	70781.679029625
71163.60924370801	5.35	0	71165.10924370801	5.348226207992411		71176.45919475	71168.957469916	71168.95924370801	71176.45924370801	71168.957549125	71176.457448375	7.5	630.78			3	3	0	3	206	240	700	750	70781.019388666	70781.184381375	70781.334363833	70781.499219208	70781.679029625
71163.60924370801	5.35	1	71165.85924370801	5.348226207992411		71176.45919475	71168.957469916	71168.95924370801	71176.45924370801	71168.957549125	71176.457448375	7.5	704.96			3	3	0	3	206	240	700	750	70781.019388666	70781.184381375	70781.334363833	70781.499219208	70781.679029625
71163.60924370801	5.35	0	71166.60924370801	5.348226207992411		71176.45919475	71168.957469916	71168.95924370801	71176.45924370801	71168.957549125	71176.457448375	7.5	615.7			3	3	0	3	206	240	700	750	70781.019388666	70781.184381375	70781.334363833	70781.499219208	70781.679029625
71163.60924370801	5.35	0	71167.35924370801	5.348226207992411		71176.45919475	71168.957469916	71168.95924370801	71176.45924370801	71168.957549125	71176.457448375	7.5	630.79			3	3	0	3	206	240	700	750	70781.019388666	70781.184381375	70781.334363833	70781.499219208	70781.679029625
71163.60924370801	5.35	0	71168.10924370801	5.348226207992411		71176.45919475	71168.957469916	71168.95924370801	71176.45924370801	71168.957549125	71176.457448375	7.5	608.65			3	3	0	3	206	240	700	750	70781.019388666	70781.184381375	70781.334363833	70781.499219208	70781.679029625
71163.60924370801	5.35	0	71168.85924370801	5.348226207992411		71176.45919475	71168.957469916	71168.95924370801	71176.45924370801	71168.957549125	71176.457448375	7.5	628.95			3	3	0	3	206	240	700	750	70781.019388666	70781.184381375	70781.334363833	70781.499219208	70781.679029625
71176.465132208	5.35	0	71176.465132208	5.347715291994973		71190.815077291	71181.8128475	71181.81513220801	71190.81513220801	71181.812923458	71190.814117458	9.0	643.35			4	0	2	3	207	240	700	750	70781.019388666	70781.184381375	70781.334363833	70781.499219208	70781.679029625
71176.465132208	5.35	0	71177.215132208	5.347715291994973		71190.815077291	71181.8128475	71181.81513220801	71190.81513220801	71181.812923458	71190.814117458	9.0	610.24			4	0	2	3	207	240	700	750	70781.019388666	70781.184381375	70781.334363833	70781.499219208	70781.679029625
71176.465132208	5.35	0	71177.965132208	5.347715291994973		71190.815077291	71181.8128475	71181.81513220801	71190.81513220801	71181.812923458	71190.814117458	9.0	606.51			4	0	2	3	207	240	700	750	70781.019388666	70781.184381375	70781.334363833	70781.499219208	70781.679029625
71176.465132208	5.35	0	71178.715132208	5.347715291994973		71190.815077291	71181.8128475	71181.81513220801	71190.81513220801	71181.812923458	71190.814117458	9.0	630.02			4	0	2	3	207	240	700	750	70781.019388666	70781.184381375	70781.334363833	70781.499219208	70781.679029625
71176.465132208	5.35	0	71179.465132208	5.347715291994973		71190.815077291	71181.8128475	71181.81513220801	71190.81513220801	71181.812923458	71190.814117458	9.0	639.23			4	0	2	3	207	240	700	750	70781.019388666	70781.184381375	70781.334363833	70781.499219208	70781.679029625
71176.465132208	5.35	0	71180.215132208	5.347715291994973		71190.815077291	71181.8128475	71181.81513220801	71190.81513220801	71181.812923458	71190.814117458	9.0	620.46			4	0	2	3	207	240	700	750	70781.019388666	70781.184381375	70781.334363833	70781.499219208	70781.679029625
71176.465132208	5.35	0	71180.965132208	5.347715291994973		71190.815077291	71181.8128475	71181.81513220801	71190.81513220801	71181.812923458	71190.814117458	9.0	639.65			4	0	2	3	207	240	700	750	70781.019388666	70781.184381375	70781.334363833	70781.499219208	70781.679029625
71176.465132208	5.35	0	71181.715132208	5.347715291994973		71190.815077291	71181.8128475	71181.81513220801	71190.81513220801	71181.812923458	71190.814117458	9.0	639.06			4	0	2	3	207	240	700	750	70781.019388666	70781.184381375	70781.334363833	70781.499219208	70781.679029625
71190.82132725	5.35	0	71190.82132725	5.347898583000642		71204.171276833	71196.169225833	71196.17132725	71204.17132725	71196.169311916	71204.169694375	8.0	608.07			3	2	0	3	208	240	700	750	70781.019388666	70781.184381375	70781.334363833	70781.499219208	70781.679029625
71190.82132725	5.35	0	71191.57132725	5.347898583000642		71204.171276833	71196.169225833	71196.17132725	71204.17132725	71196.169311916	71204.169694375	8.0	619.84			3	2	0	3	208	240	700	750	70781.019388666	70781.184381375	70781.334363833	70781.499219208	70781.679029625
71190.82132725	5.35	1	71192.32132725	5.347898583000642		71204.171276833	71196.169225833	71196.17132725	71204.17132725	71196.169311916	71204.169694375	8.0	719.28			3	2	0	3	208	240	700	750	70781.019388666	70781.184381375	70781.334363833	70781.499219208	70781.679029625
71190.82132725	5.35	0	71193.07132725	5.347898583000642		71204.171276833	71196.169225833	71196.17132725	71204.17132725	71196.169311916	71204.169694375	8.0	627.73			3	2	0	3	208	240	700	750	70781.019388666	70781.184381375	70781.334363833	70781.499219208	70781.679029625
71190.82132725	5.35	0	71193.82132725	5.347898583000642		71204.171276833	71196.169225833	71196.17132725	71204.17132725	71196.169311916	71204.169694375	8.0	646.15			3	2	0	3	208	240	700	750	70781.019388666	70781.184381375	70781.334363833	70781.499219208	70781.679029625
71190.82132725	5.35	0	71194.57132725	5.347898583000642		71204.171276833	71196.169225833	71196.17132725	71204.17132725	71196.169311916	71204.169694375	8.0	647.43			3	2	0	3	208	240	700	750	70781.019388666	70781.184381375	70781.334363833	70781.499219208	70781.679029625
71190.82132725	5.35	0	71195.32132725	5.347898583000642		71204.171276833	71196.169225833	71196.17132725	71204.17132725	71196.169311916	71204.169694375	8.0	635.0			3	2	0	3	208	240	700	750	70781.019388666	70781.184381375	70781.334363833	70781.499219208	70781.679029625
71190.82132725	5.35	0	71196.07132725	5.347898583000642		71204.171276833	71196.169225833	71196.17132725	71204.17132725	71196.169311916	71204.169694375	8.0	629.01			3	2	0	3	208	240	700	750	70781.019388666	70781.184381375	70781.334363833	70781.499219208	70781.679029625
71204.178151791	5.35	0	71204.178151791	5.348452125006588		71217.02810483299	71209.526603916	71209.528151791	71217.028151791	71209.526683041	71217.026952125	7.5	639.75			3	3	0	3	209	240	700	750	70781.019388666	70781.184381375	70781.334363833	70781.499219208	70781.679029625
71204.178151791	5.35	0	71204.928151791	5.348452125006588		71217.02810483299	71209.526603916	71209.528151791	71217.028151791	71209.526683041	71217.026952125	7.5	640.18			3	3	0	3	209	240	700	750	70781.019388666	70781.184381375	70781.334363833	70781.499219208	70781.679029625
71204.178151791	5.35	0	71205.678151791	5.348452125006588		71217.02810483299	71209.526603916	71209.528151791	71217.028151791	71209.526683041	71217.026952125	7.5	634.75			3	3	0	3	209	240	700	750	70781.019388666	70781.184381375	70781.334363833	70781.499219208	70781.679029625
71204.178151791	5.35	1	71206.428151791	5.348452125006588		71217.02810483299	71209.526603916	71209.528151791	71217.028151791	71209.526683041	71217.026952125	7.5	729.95			3	3	0	3	209	240	700	750	70781.019388666	70781.184381375	70781.334363833	70781.499219208	70781.679029625
71204.178151791	5.35	0	71207.178151791	5.348452125006588		71217.02810483299	71209.526603916	71209.528151791	71217.028151791	71209.526683041	71217.026952125	7.5	618.45			3	3	0	3	209	240	700	750	70781.019388666	70781.184381375	70781.334363833	70781.499219208	70781.679029625
71204.178151791	5.35	0	71207.928151791	5.348452125006588		71217.02810483299	71209.526603916	71209.528151791	71217.028151791	71209.526683041	71217.026952125	7.5	618.37			3	3	0	3	209	240	700	750	70781.019388666	70781.184381375	70781.334363833	70781.499219208	70781.679029625
71204.178151791	5.35	0	71208.678151791	5.348452125006588		71217.02810483299	71209.526603916	71209.528151791	71217.028151791	71209.526683041	71217.026952125	7.5	620.1			3	3	0	3	209	240	700	750	70781.019388666	70781.184381375	70781.334363833	70781.499219208	70781.679029625
71204.178151791	5.35	0	71209.428151791	5.348452125006588		71217.02810483299	71209.526603916	71209.528151791	71217.028151791	71209.526683041	71217.026952125	7.5	632.11			3	3	0	3	209	240	700	750	70781.019388666	70781.184381375	70781.334363833	70781.499219208	70781.679029625
71217.034354791	5.35	0	71217.034354791	5.34844516699377		71229.38430925	71222.382799958	71222.38435479101	71229.38435479101	71222.382873125	71229.381844416	7.0	633.87			3	4	0	3	210	240	700	750	70781.019388666	70781.184381375	70781.334363833	70781.499219208	70781.679029625
71217.034354791	5.35	0	71217.784354791	5.34844516699377		71229.38430925	71222.382799958	71222.38435479101	71229.38435479101	71222.382873125	71229.381844416	7.0	653.31			3	4	0	3	210	240	700	750	70781.019388666	70781.184381375	70781.334363833	70781.499219208	70781.679029625
71217.034354791	5.35	0	71218.534354791	5.34844516699377		71229.38430925	71222.382799958	71222.38435479101	71229.38435479101	71222.382873125	71229.381844416	7.0	632.16			3	4	0	3	210	240	700	750	70781.019388666	70781.184381375	70781.334363833	70781.499219208	70781.679029625
71217.034354791	5.35	0	71219.284354791	5.34844516699377		71229.38430925	71222.382799958	71222.38435479101	71229.38435479101	71222.382873125	71229.381844416	7.0	664.66			3	4	0	3	210	240	700	750	70781.019388666	70781.184381375	70781.334363833	70781.499219208	70781.679029625
71217.034354791	5.35	1	71220.034354791	5.34844516699377		71229.38430925	71222.382799958	71222.38435479101	71229.38435479101	71222.382873125	71229.381844416	7.0	755.7			3	4	0	3	210	240	700	750	70781.019388666	70781.184381375	70781.334363833	70781.499219208	70781.679029625
71217.034354791	5.35	0	71220.784354791	5.34844516699377		71229.38430925	71222.382799958	71222.38435479101	71229.38435479101	71222.382873125	71229.381844416	7.0	626.88			3	4	0	3	210	240	700	750	70781.019388666	70781.184381375	70781.334363833	70781.499219208	70781.679029625
71217.034354791	5.35	0	71221.534354791	5.34844516699377		71229.38430925	71222.382799958	71222.38435479101	71229.38435479101	71222.382873125	71229.381844416	7.0	634.53			3	4	0	3	210	240	700	750	70781.019388666	70781.184381375	70781.334363833	70781.499219208	70781.679029625
71217.034354791	5.35	0	71222.284354791	5.34844516699377		71229.38430925	71222.382799958	71222.38435479101	71229.38435479101	71222.382873125	71229.381844416	7.0	635.7			3	4	0	3	210	240	700	750	70781.019388666	70781.184381375	70781.334363833	70781.499219208	70781.679029625
71229.39055920801	5.35	0	71229.39055920801	5.34944787499262		71244.240509791	71234.740007083	71234.74055920802	71244.24055920802	71234.740023125	71244.239983375	9.5	636.09			3	2	0	3	211	240	700	750	70781.019388666	70781.184381375	70781.334363833	70781.499219208	70781.679029625
71229.39055920801	5.35	0	71230.14055920801	5.34944787499262		71244.240509791	71234.740007083	71234.74055920802	71244.24055920802	71234.740023125	71244.239983375	9.5	646.6			3	2	0	3	211	240	700	750	70781.019388666	70781.184381375	70781.334363833	70781.499219208	70781.679029625
71229.39055920801	5.35	1	71230.89055920801	5.34944787499262		71244.240509791	71234.740007083	71234.74055920802	71244.24055920802	71234.740023125	71244.239983375	9.5	748.12			3	2	0	3	211	240	700	750	70781.019388666	70781.184381375	70781.334363833	70781.499219208	70781.679029625
71229.39055920801	5.35	0	71231.64055920801	5.34944787499262		71244.240509791	71234.740007083	71234.74055920802	71244.24055920802	71234.740023125	71244.239983375	9.5	646.05			3	2	0	3	211	240	700	750	70781.019388666	70781.184381375	70781.334363833	70781.499219208	70781.679029625
71229.39055920801	5.35	0	71232.39055920801	5.34944787499262		71244.240509791	71234.740007083	71234.74055920802	71244.24055920802	71234.740023125	71244.239983375	9.5	644.56			3	2	0	3	211	240	700	750	70781.019388666	70781.184381375	70781.334363833	70781.499219208	70781.679029625
71229.39055920801	5.35	0	71233.14055920801	5.34944787499262		71244.240509791	71234.740007083	71234.74055920802	71244.24055920802	71234.740023125	71244.239983375	9.5	664.88			3	2	0	3	211	240	700	750	70781.019388666	70781.184381375	70781.334363833	70781.499219208	70781.679029625
71229.39055920801	5.35	0	71233.89055920801	5.34944787499262		71244.240509791	71234.740007083	71234.74055920802	71244.24055920802	71234.740023125	71244.239983375	9.5	673.26			3	2	0	3	211	240	700	750	70781.019388666	70781.184381375	70781.334363833	70781.499219208	70781.679029625
71229.39055920801	5.35	0	71234.64055920801	5.34944787499262		71244.240509791	71234.740007083	71234.74055920802	71244.24055920802	71234.740023125	71244.239983375	9.5	686.7			3	2	0	3	211	240	700	750	70781.019388666	70781.184381375	70781.334363833	70781.499219208	70781.679029625
71244.24488479101	5.35	0	71244.24488479101	5.349953208991792		71258.094847666	71249.594838	71249.59488479102	71258.09488479102	71249.594852875	71258.092185916	8.5	685.5			3	4	0	3	212	240	700	750	70781.019388666	70781.184381375	70781.334363833	70781.499219208	70781.679029625
71244.24488479101	5.35	0	71244.99488479101	5.349953208991792		71258.094847666	71249.594838	71249.59488479102	71258.09488479102	71249.594852875	71258.092185916	8.5	677.38			3	4	0	3	212	240	700	750	70781.019388666	70781.184381375	70781.334363833	70781.499219208	70781.679029625
71244.24488479101	5.35	0	71245.74488479101	5.349953208991792		71258.094847666	71249.594838	71249.59488479102	71258.09488479102	71249.594852875	71258.092185916	8.5	678.42			3	4	0	3	212	240	700	750	70781.019388666	70781.184381375	70781.334363833	70781.499219208	70781.679029625
71244.24488479101	5.35	0	71246.49488479101	5.349953208991792		71258.094847666	71249.594838	71249.59488479102	71258.09488479102	71249.594852875	71258.092185916	8.5	687.92			3	4	0	3	212	240	700	750	70781.019388666	70781.184381375	70781.334363833	70781.499219208	70781.679029625
71244.24488479101	5.35	1	71247.24488479101	5.349953208991792		71258.094847666	71249.594838	71249.59488479102	71258.09488479102	71249.594852875	71258.092185916	8.5	719.84			3	4	0	3	212	240	700	750	70781.019388666	70781.184381375	70781.334363833	70781.499219208	70781.679029625
71244.24488479101	5.35	0	71247.99488479101	5.349953208991792		71258.094847666	71249.594838	71249.59488479102	71258.09488479102	71249.594852875	71258.092185916	8.5	673.28			3	4	0	3	212	240	700	750	70781.019388666	70781.184381375	70781.334363833	70781.499219208	70781.679029625
71244.24488479101	5.35	0	71248.74488479101	5.349953208991792		71258.094847666	71249.594838	71249.59488479102	71258.09488479102	71249.594852875	71258.092185916	8.5	692.11			3	4	0	3	212	240	700	750	70781.019388666	70781.184381375	70781.334363833	70781.499219208	70781.679029625
71244.24488479101	5.35	0	71249.49488479101	5.349953208991792		71258.094847666	71249.594838	71249.59488479102	71258.09488479102	71249.594852875	71258.092185916	8.5	679.67			3	4	0	3	212	240	700	750	70781.019388666	70781.184381375	70781.334363833	70781.499219208	70781.679029625
71258.111722625	5.35	0	71258.111722625	5.346956499997759		71271.96168520799	71263.458679125	71263.46172262501	71271.96172262501	71263.458785375	71271.959157208	8.5	682.8			3	4	0	3	213	240	700	750	70781.019388666	70781.184381375	70781.334363833	70781.499219208	70781.679029625
71258.111722625	5.35	0	71258.861722625	5.346956499997759		71271.96168520799	71263.458679125	71263.46172262501	71271.96172262501	71263.458785375	71271.959157208	8.5	680.74			3	4	0	3	213	240	700	750	70781.019388666	70781.184381375	70781.334363833	70781.499219208	70781.679029625
71258.111722625	5.35	0	71259.611722625	5.346956499997759		71271.96168520799	71263.458679125	71263.46172262501	71271.96172262501	71263.458785375	71271.959157208	8.5	677.54			3	4	0	3	213	240	700	750	70781.019388666	70781.184381375	70781.334363833	70781.499219208	70781.679029625
71258.111722625	5.35	0	71260.361722625	5.346956499997759		71271.96168520799	71263.458679125	71263.46172262501	71271.96172262501	71263.458785375	71271.959157208	8.5	667.81			3	4	0	3	213	240	700	750	70781.019388666	70781.184381375	70781.334363833	70781.499219208	70781.679029625
71258.111722625	5.35	1	71261.111722625	5.346956499997759		71271.96168520799	71263.458679125	71263.46172262501	71271.96172262501	71263.458785375	71271.959157208	8.5	759.6			3	4	0	3	213	240	700	750	70781.019388666	70781.184381375	70781.334363833	70781.499219208	70781.679029625
71258.111722625	5.35	0	71261.861722625	5.346956499997759		71271.96168520799	71263.458679125	71263.46172262501	71271.96172262501	71263.458785375	71271.959157208	8.5	685.57			3	4	0	3	213	240	700	750	70781.019388666	70781.184381375	70781.334363833	70781.499219208	70781.679029625
71258.111722625	5.35	0	71262.611722625	5.346956499997759		71271.96168520799	71263.458679125	71263.46172262501	71271.96172262501	71263.458785375	71271.959157208	8.5	716.63			3	4	0	3	213	240	700	750	70781.019388666	70781.184381375	70781.334363833	70781.499219208	70781.679029625
71258.111722625	5.35	0	71263.361722625	5.346956499997759		71271.96168520799	71263.458679125	71263.46172262501	71271.96172262501	71263.458785375	71271.959157208	8.5	704.14			3	4	0	3	213	240	700	750	70781.019388666	70781.184381375	70781.334363833	70781.499219208	70781.679029625
71271.97824762501	5.35	0	71271.97824762501	5.347191165987169	0.8010745840001618	71286.828201916	71277.325438791	71277.32824762502	71286.82824762502	71277.325538875	71286.82523325	9.5	697.53	y	68.0	1	3	0	3	214	240	700	750	70781.019388666	70781.184381375	70781.334363833	70781.499219208	70781.679029625
71271.97824762501	5.35	0	71272.72824762501	5.347191165987169	0.8010745840001618	71286.828201916	71277.325438791	71277.32824762502	71286.82824762502	71277.325538875	71286.82523325	9.5	709.19	y	68.0	1	3	0	3	214	240	700	750	70781.019388666	70781.184381375	70781.334363833	70781.499219208	70781.679029625
71271.97824762501	5.35	0	71273.47824762501	5.347191165987169	0.8010745840001618	71286.828201916	71277.325438791	71277.32824762502	71286.82824762502	71277.325538875	71286.82523325	9.5	703.83	y	68.0	1	3	0	3	214	240	700	750	70781.019388666	70781.184381375	70781.334363833	70781.499219208	70781.679029625
71271.97824762501	5.35	1	71274.22824762501	5.347191165987169	0.8010745840001618	71286.828201916	71277.325438791	71277.32824762502	71286.82824762502	71277.325538875	71286.82523325	9.5	762.77	y	68.0	1	3	0	3	214	240	700	750	70781.019388666	70781.184381375	70781.334363833	70781.499219208	70781.679029625
71271.97824762501	5.35	0	71274.97824762501	5.347191165987169	0.8010745840001618	71286.828201916	71277.325438791	71277.32824762502	71286.82824762502	71277.325538875	71286.82523325	9.5	721.58	y	68.0	1	3	0	3	214	240	700	750	70781.019388666	70781.184381375	70781.334363833	70781.499219208	70781.679029625
71271.97824762501	5.35	0	71275.72824762501	5.347191165987169	0.8010745840001618	71286.828201916	71277.325438791	71277.32824762502	71286.82824762502	71277.325538875	71286.82523325	9.5	719.79	y	68.0	1	3	0	3	214	240	700	750	70781.019388666	70781.184381375	70781.334363833	70781.499219208	70781.679029625
71271.97824762501	5.35	0	71276.47824762501	5.347191165987169	0.8010745840001618	71286.828201916	71277.325438791	71277.32824762502	71286.82824762502	71277.325538875	71286.82523325	9.5	693.08	y	68.0	1	3	0	3	214	240	700	750	70781.019388666	70781.184381375	70781.334363833	70781.499219208	70781.679029625
71271.97824762501	5.35	0	71277.22824762501	5.347191165987169	0.8010745840001618	71286.828201916	71277.325438791	71277.32824762502	71286.82824762502	71277.325538875	71286.82523325	9.5	698.71	y	68.0	1	3	0	3	214	240	700	750	70781.019388666	70781.184381375	70781.334363833	70781.499219208	70781.679029625
71286.84476437501	5.35	0	71286.84476437501	5.349192582987598		71302.194713875	71292.193956958	71292.19476437502	71302.19476437502	71292.194037833	71302.191945708	10.0	680.84			3	6	1	3	215	240	700	750	70781.019388666	70781.184381375	70781.334363833	70781.499219208	70781.679029625
71286.84476437501	5.35	0	71287.59476437501	5.349192582987598		71302.194713875	71292.193956958	71292.19476437502	71302.19476437502	71292.194037833	71302.191945708	10.0	701.28			3	6	1	3	215	240	700	750	70781.019388666	70781.184381375	70781.334363833	70781.499219208	70781.679029625
71286.84476437501	5.35	0	71288.34476437501	5.349192582987598		71302.194713875	71292.193956958	71292.19476437502	71302.19476437502	71292.194037833	71302.191945708	10.0	723.67			3	6	1	3	215	240	700	750	70781.019388666	70781.184381375	70781.334363833	70781.499219208	70781.679029625
71286.84476437501	5.35	0	71289.09476437501	5.349192582987598		71302.194713875	71292.193956958	71292.19476437502	71302.19476437502	71292.194037833	71302.191945708	10.0	712.98			3	6	1	3	215	240	700	750	70781.019388666	70781.184381375	70781.334363833	70781.499219208	70781.679029625
71286.84476437501	5.35	0	71289.84476437501	5.349192582987598		71302.194713875	71292.193956958	71292.19476437502	71302.19476437502	71292.194037833	71302.191945708	10.0	741.17			3	6	1	3	215	240	700	750	70781.019388666	70781.184381375	70781.334363833	70781.499219208	70781.679029625
71286.84476437501	5.35	0	71290.59476437501	5.349192582987598		71302.194713875	71292.193956958	71292.19476437502	71302.19476437502	71292.194037833	71302.191945708	10.0	730.55			3	6	1	3	215	240	700	750	70781.019388666	70781.184381375	70781.334363833	70781.499219208	70781.679029625
71286.84476437501	5.35	1	71291.34476437501	5.349192582987598		71302.194713875	71292.193956958	71292.19476437502	71302.19476437502	71292.194037833	71302.191945708	10.0	739.89			3	6	1	3	215	240	700	750	70781.019388666	70781.184381375	70781.334363833	70781.499219208	70781.679029625
71286.84476437501	5.35	0	71292.09476437501	5.349192582987598		71302.194713875	71292.193956958	71292.19476437502	71302.19476437502	71292.194037833	71302.191945708	10.0	732.6			3	6	1	3	215	240	700	750	70781.019388666	70781.184381375	70781.334363833	70781.499219208	70781.679029625
71302.211588833	5.35	0	71302.211588833	5.349960708001163		71315.06154254099	71307.561549541	71307.561588833	71315.061588833	71307.561646875	71315.0601115	7.5	709.59			3	6	1	3	216	240	700	750	70781.019388666	70781.184381375	70781.334363833	70781.499219208	70781.679029625
71302.211588833	5.35	0	71302.961588833	5.349960708001163		71315.06154254099	71307.561549541	71307.561588833	71315.061588833	71307.561646875	71315.0601115	7.5	692.75			3	6	1	3	216	240	700	750	70781.019388666	70781.184381375	70781.334363833	70781.499219208	70781.679029625
71302.211588833	5.35	0	71303.711588833	5.349960708001163		71315.06154254099	71307.561549541	71307.561588833	71315.061588833	71307.561646875	71315.0601115	7.5	696.58			3	6	1	3	216	240	700	750	70781.019388666	70781.184381375	70781.334363833	70781.499219208	70781.679029625
71302.211588833	5.35	0	71304.461588833	5.349960708001163		71315.06154254099	71307.561549541	71307.561588833	71315.061588833	71307.561646875	71315.0601115	7.5	737.25			3	6	1	3	216	240	700	750	70781.019388666	70781.184381375	70781.334363833	70781.499219208	70781.679029625
71302.211588833	5.35	0	71305.211588833	5.349960708001163		71315.06154254099	71307.561549541	71307.561588833	71315.061588833	71307.561646875	71315.0601115	7.5	748.03			3	6	1	3	216	240	700	750	70781.019388666	70781.184381375	70781.334363833	70781.499219208	70781.679029625
71302.211588833	5.35	0	71305.961588833	5.349960708001163		71315.06154254099	71307.561549541	71307.561588833	71315.061588833	71307.561646875	71315.0601115	7.5	762.5			3	6	1	3	216	240	700	750	70781.019388666	70781.184381375	70781.334363833	70781.499219208	70781.679029625
71302.211588833	5.35	1	71306.711588833	5.349960708001163		71315.06154254099	71307.561549541	71307.561588833	71315.061588833	71307.561646875	71315.0601115	7.5	737.22			3	6	1	3	216	240	700	750	70781.019388666	70781.184381375	70781.334363833	70781.499219208	70781.679029625
71302.211588833	5.35	0	71307.461588833	5.349960708001163		71315.06154254099	71307.561549541	71307.561588833	71315.061588833	71307.561646875	71315.0601115	7.5	752.67			3	6	1	3	216	240	700	750	70781.019388666	70781.184381375	70781.334363833	70781.499219208	70781.679029625
71315.081229958	5.35	0	71315.081229958	5.3480322920077015		71328.931178	71320.42926225	71320.431229958	71328.931229958	71320.429349916	71328.927824708	8.5	746.64			3	5	1	3	217	240	700	750	70781.019388666	70781.184381375	70781.334363833	70781.499219208	70781.679029625
71315.081229958	5.35	0	71315.831229958	5.3480322920077015		71328.931178	71320.42926225	71320.431229958	71328.931229958	71320.429349916	71328.927824708	8.5	762.41			3	5	1	3	217	240	700	750	70781.019388666	70781.184381375	70781.334363833	70781.499219208	70781.679029625
71315.081229958	5.35	0	71316.581229958	5.3480322920077015		71328.931178	71320.42926225	71320.431229958	71328.931229958	71320.429349916	71328.927824708	8.5	798.27			3	5	1	3	217	240	700	750	70781.019388666	70781.184381375	70781.334363833	70781.499219208	70781.679029625
71315.081229958	5.35	0	71317.331229958	5.3480322920077015		71328.931178	71320.42926225	71320.431229958	71328.931229958	71320.429349916	71328.927824708	8.5	767.82			3	5	1	3	217	240	700	750	70781.019388666	70781.184381375	70781.334363833	70781.499219208	70781.679029625
71315.081229958	5.35	0	71318.081229958	5.3480322920077015		71328.931178	71320.42926225	71320.431229958	71328.931229958	71320.429349916	71328.927824708	8.5	789.76			3	5	1	3	217	240	700	750	70781.019388666	70781.184381375	70781.334363833	70781.499219208	70781.679029625
71315.081229958	5.35	1	71318.831229958	5.3480322920077015		71328.931178	71320.42926225	71320.431229958	71328.931229958	71320.429349916	71328.927824708	8.5	725.76			3	5	1	3	217	240	700	750	70781.019388666	70781.184381375	70781.334363833	70781.499219208	70781.679029625
71315.081229958	5.35	0	71319.581229958	5.3480322920077015		71328.931178	71320.42926225	71320.431229958	71328.931229958	71320.429349916	71328.927824708	8.5	810.23			3	5	1	3	217	240	700	750	70781.019388666	70781.184381375	70781.334363833	70781.499219208	70781.679029625
71315.081229958	5.35	0	71320.331229958	5.3480322920077015		71328.931178	71320.42926225	71320.431229958	71328.931229958	71320.429349916	71328.927824708	8.5	778.37			3	5	1	3	217	240	700	750	70781.019388666	70781.184381375	70781.334363833	70781.499219208	70781.679029625
71328.947427958	5.35	0	71328.947427958	5.347735874995124		71343.79737074999	71334.295163833	71334.29742795801	71343.79742795801	71334.295257625	71343.794558916	9.5	769.84			3	5	1	3	218	240	700	750	70781.019388666	70781.184381375	70781.334363833	70781.499219208	70781.679029625
71328.947427958	5.35	0	71329.697427958	5.347735874995124		71343.79737074999	71334.295163833	71334.29742795801	71343.79742795801	71334.295257625	71343.794558916	9.5	779.43			3	5	1	3	218	240	700	750	70781.019388666	70781.184381375	70781.334363833	70781.499219208	70781.679029625
71328.947427958	5.35	0	71330.447427958	5.347735874995124		71343.79737074999	71334.295163833	71334.29742795801	71343.79742795801	71334.295257625	71343.794558916	9.5	759.73			3	5	1	3	218	240	700	750	70781.019388666	70781.184381375	70781.334363833	70781.499219208	70781.679029625
71328.947427958	5.35	0	71331.197427958	5.347735874995124		71343.79737074999	71334.295163833	71334.29742795801	71343.79742795801	71334.295257625	71343.794558916	9.5	755.95			3	5	1	3	218	240	700	750	70781.019388666	70781.184381375	70781.334363833	70781.499219208	70781.679029625
71328.947427958	5.35	0	71331.947427958	5.347735874995124		71343.79737074999	71334.295163833	71334.29742795801	71343.79742795801	71334.295257625	71343.794558916	9.5	755.54			3	5	1	3	218	240	700	750	70781.019388666	70781.184381375	70781.334363833	70781.499219208	70781.679029625
71328.947427958	5.35	1	71332.697427958	5.347735874995124		71343.79737074999	71334.295163833	71334.29742795801	71343.79742795801	71334.295257625	71343.794558916	9.5	722.4			3	5	1	3	218	240	700	750	70781.019388666	70781.184381375	70781.334363833	70781.499219208	70781.679029625
71328.947427958	5.35	0	71333.447427958	5.347735874995124		71343.79737074999	71334.295163833	71334.29742795801	71343.79742795801	71334.295257625	71343.794558916	9.5	771.51			3	5	1	3	218	240	700	750	70781.019388666	70781.184381375	70781.334363833	70781.499219208	70781.679029625
71328.947427958	5.35	0	71334.197427958	5.347735874995124		71343.79737074999	71334.295163833	71334.29742795801	71343.79742795801	71334.295257625	71343.794558916	9.5	745.09			3	5	1	3	218	240	700	750	70781.019388666	70781.184381375	70781.334363833	70781.499219208	70781.679029625
71343.814558166	5.35	0	71343.814558166	5.345428000000538		71358.664501208	71349.159986166	71349.16455816601	71358.66455816601	71349.160065666	71358.661951916	9.5	745.77			4	0	2	3	219	240	700	750	70781.019388666	70781.184381375	70781.334363833	70781.499219208	70781.679029625
71343.814558166	5.35	0	71344.564558166	5.345428000000538		71358.664501208	71349.159986166	71349.16455816601	71358.66455816601	71349.160065666	71358.661951916	9.5	764.41			4	0	2	3	219	240	700	750	70781.019388666	70781.184381375	70781.334363833	70781.499219208	70781.679029625
71343.814558166	5.35	0	71345.314558166	5.345428000000538		71358.664501208	71349.159986166	71349.16455816601	71358.66455816601	71349.160065666	71358.661951916	9.5	755.02			4	0	2	3	219	240	700	750	70781.019388666	70781.184381375	70781.334363833	70781.499219208	70781.679029625
71343.814558166	5.35	0	71346.064558166	5.345428000000538		71358.664501208	71349.159986166	71349.16455816601	71358.66455816601	71349.160065666	71358.661951916	9.5	763.67			4	0	2	3	219	240	700	750	70781.019388666	70781.184381375	70781.334363833	70781.499219208	70781.679029625
71343.814558166	5.35	0	71346.814558166	5.345428000000538		71358.664501208	71349.159986166	71349.16455816601	71358.66455816601	71349.160065666	71358.661951916	9.5	763.33			4	0	2	3	219	240	700	750	70781.019388666	70781.184381375	70781.334363833	70781.499219208	70781.679029625
71343.814558166	5.35	0	71347.564558166	5.345428000000538		71358.664501208	71349.159986166	71349.16455816601	71358.66455816601	71349.160065666	71358.661951916	9.5	779.03			4	0	2	3	219	240	700	750	70781.019388666	70781.184381375	70781.334363833	70781.499219208	70781.679029625
71343.814558166	5.35	0	71348.314558166	5.345428000000538		71358.664501208	71349.159986166	71349.16455816601	71358.66455816601	71349.160065666	71358.661951916	9.5	767.65			4	0	2	3	219	240	700	750	70781.019388666	70781.184381375	70781.334363833	70781.499219208	70781.679029625
71343.814558166	5.35	0	71349.064558166	5.345428000000538		71358.664501208	71349.159986166	71349.16455816601	71358.66455816601	71349.160065666	71358.661951916	9.5	764.86			4	0	2	3	219	240	700	750	70781.019388666	70781.184381375	70781.334363833	70781.499219208	70781.679029625
71358.68106366601	5.35	0	71358.68106366601	5.347048041992821		71374.531000375	71364.028111708	71364.03106366601	71374.53106366601	71364.0282125	71374.527659916	10.5	775.14			3	4	1	3	220	240	700	750	70781.019388666	70781.184381375	70781.334363833	70781.499219208	70781.679029625
71358.68106366601	5.35	0	71359.43106366601	5.347048041992821		71374.531000375	71364.028111708	71364.03106366601	71374.53106366601	71364.0282125	71374.527659916	10.5	764.33			3	4	1	3	220	240	700	750	70781.019388666	70781.184381375	70781.334363833	70781.499219208	70781.679029625
71358.68106366601	5.35	0	71360.18106366601	5.347048041992821		71374.531000375	71364.028111708	71364.03106366601	71374.53106366601	71364.0282125	71374.527659916	10.5	753.93			3	4	1	3	220	240	700	750	70781.019388666	70781.184381375	70781.334363833	70781.499219208	70781.679029625
71358.68106366601	5.35	0	71360.93106366601	5.347048041992821		71374.531000375	71364.028111708	71364.03106366601	71374.53106366601	71364.0282125	71374.527659916	10.5	744.42			3	4	1	3	220	240	700	750	70781.019388666	70781.184381375	70781.334363833	70781.499219208	70781.679029625
71358.68106366601	5.35	1	71361.68106366601	5.347048041992821		71374.531000375	71364.028111708	71364.03106366601	71374.53106366601	71364.0282125	71374.527659916	10.5	736.18			3	4	1	3	220	240	700	750	70781.019388666	70781.184381375	70781.334363833	70781.499219208	70781.679029625
71358.68106366601	5.35	0	71362.43106366601	5.347048041992821		71374.531000375	71364.028111708	71364.03106366601	71374.53106366601	71364.0282125	71374.527659916	10.5	746.34			3	4	1	3	220	240	700	750	70781.019388666	70781.184381375	70781.334363833	70781.499219208	70781.679029625
71358.68106366601	5.35	0	71363.18106366601	5.347048041992821		71374.531000375	71364.028111708	71364.03106366601	71374.53106366601	71364.0282125	71374.527659916	10.5	711.67			3	4	1	3	220	240	700	750	70781.019388666	70781.184381375	70781.334363833	70781.499219208	70781.679029625
71358.68106366601	5.35	0	71363.93106366601	5.347048041992821		71374.531000375	71364.028111708	71364.03106366601	71374.53106366601	71364.0282125	71374.527659916	10.5	717.07			3	4	1	3	220	240	700	750	70781.019388666	70781.184381375	70781.334363833	70781.499219208	70781.679029625
71374.548187833	5.35	0	71374.548187833	5.346694332998595		71388.89813175	71379.894882166	71379.89818783301	71388.89818783301	71379.894996333	71388.892774291	9.0	717.49			3	4	1	3	221	240	700	750	70781.019388666	70781.184381375	70781.334363833	70781.499219208	70781.679029625
71374.548187833	5.35	0	71375.298187833	5.346694332998595		71388.89813175	71379.894882166	71379.89818783301	71388.89818783301	71379.894996333	71388.892774291	9.0	735.33			3	4	1	3	221	240	700	750	70781.019388666	70781.184381375	70781.334363833	70781.499219208	70781.679029625
71374.548187833	5.35	0	71376.048187833	5.346694332998595		71388.89813175	71379.894882166	71379.89818783301	71388.89818783301	71379.894996333	71388.892774291	9.0	744.55			3	4	1	3	221	240	700	750	70781.019388666	70781.184381375	70781.334363833	70781.499219208	70781.679029625
71374.548187833	5.35	0	71376.798187833	5.346694332998595		71388.89813175	71379.894882166	71379.89818783301	71388.89818783301	71379.894996333	71388.892774291	9.0	754.58			3	4	1	3	221	240	700	750	70781.019388666	70781.184381375	70781.334363833	70781.499219208	70781.679029625
71374.548187833	5.35	1	71377.548187833	5.346694332998595		71388.89813175	71379.894882166	71379.89818783301	71388.89818783301	71379.894996333	71388.892774291	9.0	748.62			3	4	1	3	221	240	700	750	70781.019388666	70781.184381375	70781.334363833	70781.499219208	70781.679029625
71374.548187833	5.35	0	71378.298187833	5.346694332998595		71388.89813175	71379.894882166	71379.89818783301	71388.89818783301	71379.894996333	71388.892774291	9.0	712.44			3	4	1	3	221	240	700	750	70781.019388666	70781.184381375	70781.334363833	70781.499219208	70781.679029625
71374.548187833	5.35	0	71379.048187833	5.346694332998595		71388.89813175	71379.894882166	71379.89818783301	71388.89818783301	71379.894996333	71388.892774291	9.0	726.31			3	4	1	3	221	240	700	750	70781.019388666	70781.184381375	70781.334363833	70781.499219208	70781.679029625
71374.548187833	5.35	0	71379.798187833	5.346694332998595		71388.89813175	71379.894882166	71379.89818783301	71388.89818783301	71379.894996333	71388.892774291	9.0	692.59			3	4	1	3	221	240	700	750	70781.019388666	70781.184381375	70781.334363833	70781.499219208	70781.679029625
71388.913756666	5.35	0	71388.913756666	5.345942666986957		71401.263707416	71394.259699333	71394.26375666601	71401.26375666601	71394.259773583	71401.261416958	7.0	697.18			3	6	1	3	222	240	700	750	70781.019388666	70781.184381375	70781.334363833	70781.499219208	70781.679029625
71388.913756666	5.35	0	71389.663756666	5.345942666986957		71401.263707416	71394.259699333	71394.26375666601	71401.26375666601	71394.259773583	71401.261416958	7.0	669.3			3	6	1	3	222	240	700	750	70781.019388666	70781.184381375	70781.334363833	70781.499219208	70781.679029625
71388.913756666	5.35	0	71390.413756666	5.345942666986957		71401.263707416	71394.259699333	71394.26375666601	71401.26375666601	71394.259773583	71401.261416958	7.0	671.4			3	6	1	3	222	240	700	750	70781.019388666	70781.184381375	70781.334363833	70781.499219208	70781.679029625
71388.913756666	5.35	0	71391.163756666	5.345942666986957		71401.263707416	71394.259699333	71394.26375666601	71401.26375666601	71394.259773583	71401.261416958	7.0	686.7			3	6	1	3	222	240	700	750	70781.019388666	70781.184381375	70781.334363833	70781.499219208	70781.679029625
71388.913756666	5.35	0	71391.913756666	5.345942666986957		71401.263707416	71394.259699333	71394.26375666601	71401.26375666601	71394.259773583	71401.261416958	7.0	685.91			3	6	1	3	222	240	700	750	70781.019388666	70781.184381375	70781.334363833	70781.499219208	70781.679029625
71388.913756666	5.35	0	71392.663756666	5.345942666986957		71401.263707416	71394.259699333	71394.26375666601	71401.26375666601	71394.259773583	71401.261416958	7.0	709.43			3	6	1	3	222	240	700	750	70781.019388666	70781.184381375	70781.334363833	70781.499219208	70781.679029625
71388.913756666	5.35	1	71393.413756666	5.345942666986957		71401.263707416	71394.259699333	71394.26375666601	71401.26375666601	71394.259773583	71401.261416958	7.0	741.19			3	6	1	3	222	240	700	750	70781.019388666	70781.184381375	70781.334363833	70781.499219208	70781.679029625
71388.913756666	5.35	0	71394.163756666	5.345942666986957		71401.263707416	71394.259699333	71394.26375666601	71401.26375666601	71394.259773583	71401.261416958	7.0	711.08			3	6	1	3	222	240	700	750	70781.019388666	70781.184381375	70781.334363833	70781.499219208	70781.679029625
71401.28058237501	5.35	0	71401.28058237501	5.347406249988126		71416.13052225	71406.627988625	71406.63058237502	71416.13058237502	71406.628087541	71416.127581416	9.5	705.03			3	3	0	3	223	240	700	750	70781.019388666	70781.184381375	70781.334363833	70781.499219208	70781.679029625
71401.28058237501	5.35	0	71402.03058237501	5.347406249988126		71416.13052225	71406.627988625	71406.63058237502	71416.13058237502	71406.628087541	71416.127581416	9.5	709.78			3	3	0	3	223	240	700	750	70781.019388666	70781.184381375	70781.334363833	70781.499219208	70781.679029625
71401.28058237501	5.35	0	71402.78058237501	5.347406249988126		71416.13052225	71406.627988625	71406.63058237502	71416.13058237502	71406.628087541	71416.127581416	9.5	702.39			3	3	0	3	223	240	700	750	70781.019388666	70781.184381375	70781.334363833	70781.499219208	70781.679029625
71401.28058237501	5.35	1	71403.53058237501	5.347406249988126		71416.13052225	71406.627988625	71406.63058237502	71416.13058237502	71406.628087541	71416.127581416	9.5	734.66			3	3	0	3	223	240	700	750	70781.019388666	70781.184381375	70781.334363833	70781.499219208	70781.679029625
71401.28058237501	5.35	0	71404.28058237501	5.347406249988126		71416.13052225	71406.627988625	71406.63058237502	71416.13058237502	71406.628087541	71416.127581416	9.5	716.31			3	3	0	3	223	240	700	750	70781.019388666	70781.184381375	70781.334363833	70781.499219208	70781.679029625
71401.28058237501	5.35	0	71405.03058237501	5.347406249988126		71416.13052225	71406.627988625	71406.63058237502	71416.13058237502	71406.628087541	71416.127581416	9.5	747.15			3	3	0	3	223	240	700	750	70781.019388666	70781.184381375	70781.334363833	70781.499219208	70781.679029625
71401.28058237501	5.35	0	71405.78058237501	5.347406249988126		71416.13052225	71406.627988625	71406.63058237502	71416.13058237502	71406.628087541	71416.127581416	9.5	761.69			3	3	0	3	223	240	700	750	70781.019388666	70781.184381375	70781.334363833	70781.499219208	70781.679029625
71401.28058237501	5.35	0	71406.53058237501	5.347406249988126		71416.13052225	71406.627988625	71406.63058237502	71416.13058237502	71406.628087541	71416.127581416	9.5	772.41			3	3	0	3	223	240	700	750	70781.019388666	70781.184381375	70781.334363833	70781.499219208	70781.679029625
71416.147397166	5.35	0	71416.147397166	5.349852792001911		71430.99733674999	71421.497249958	71421.49739716601	71430.99739716601	71421.497351541	71430.994734416	9.5	767.93			3	3	0	3	224	240	700	750	70781.019388666	70781.184381375	70781.334363833	70781.499219208	70781.679029625
71416.147397166	5.35	0	71416.897397166	5.349852792001911		71430.99733674999	71421.497249958	71421.49739716601	71430.99739716601	71421.497351541	71430.994734416	9.5	757.26			3	3	0	3	224	240	700	750	70781.019388666	70781.184381375	70781.334363833	70781.499219208	70781.679029625
71416.147397166	5.35	0	71417.647397166	5.349852792001911		71430.99733674999	71421.497249958	71421.49739716601	71430.99739716601	71421.497351541	71430.994734416	9.5	746.16			3	3	0	3	224	240	700	750	70781.019388666	70781.184381375	70781.334363833	70781.499219208	70781.679029625
71416.147397166	5.35	1	71418.397397166	5.349852792001911		71430.99733674999	71421.497249958	71421.49739716601	71430.99739716601	71421.497351541	71430.994734416	9.5	732.55			3	3	0	3	224	240	700	750	70781.019388666	70781.184381375	70781.334363833	70781.499219208	70781.679029625
71416.147397166	5.35	0	71419.147397166	5.349852792001911		71430.99733674999	71421.497249958	71421.49739716601	71430.99739716601	71421.497351541	71430.994734416	9.5	769.74			3	3	0	3	224	240	700	750	70781.019388666	70781.184381375	70781.334363833	70781.499219208	70781.679029625
71416.147397166	5.35	0	71419.897397166	5.349852792001911		71430.99733674999	71421.497249958	71421.49739716601	71430.99739716601	71421.497351541	71430.994734416	9.5	750.68			3	3	0	3	224	240	700	750	70781.019388666	70781.184381375	70781.334363833	70781.499219208	70781.679029625
71416.147397166	5.35	0	71420.647397166	5.349852792001911		71430.99733674999	71421.497249958	71421.49739716601	71430.99739716601	71421.497351541	71430.994734416	9.5	751.41			3	3	0	3	224	240	700	750	70781.019388666	70781.184381375	70781.334363833	70781.499219208	70781.679029625
71416.147397166	5.35	0	71421.397397166	5.349852792001911		71430.99733674999	71421.497249958	71421.49739716601	71430.99739716601	71421.497351541	71430.994734416	9.5	754.18			3	3	0	3	224	240	700	750	70781.019388666	70781.184381375	70781.334363833	70781.499219208	70781.679029625
