onset	duration	trial_type	onset_tone	duration_imprecise	response_time_imprecise	offset_trial	offset_sound_imprecise	onset_iti	offset_iti	onset_iti_imprecise	offset_iti_imprecise	ITI	frequency	key_pressed	correct	dpos	rule	runs	trial_no	tau_std	lim_std	lim_dev	trigger_time_1	trigger_time_2	trigger_time_3	trigger_time_4	trigger_time_5
90726.12980641601	5.35	0	90726.12980641601	5.349829249986215		90737.481709166	90731.479635666	90731.47980641601	90737.47980641601	90731.479641791	90737.478976041	6.0	699.32		3	5	1	0	0	40	700	750	90725.202465916	90725.339954791	90725.56508475	90725.835152166	90726.075132
90726.12980641601	5.35	0	90726.87980641601	5.349829249986215		90737.481709166	90731.479635666	90731.47980641601	90737.47980641601	90731.479641791	90737.478976041	6.0	723.51		3	5	1	0	0	40	700	750	90725.202465916	90725.339954791	90725.56508475	90725.835152166	90726.075132
90726.12980641601	5.35	0	90727.62980641601	5.349829249986215		90737.481709166	90731.479635666	90731.47980641601	90737.47980641601	90731.479641791	90737.478976041	6.0	726.46		3	5	1	0	0	40	700	750	90725.202465916	90725.339954791	90725.56508475	90725.835152166	90726.075132
90726.12980641601	5.35	0	90728.37980641601	5.349829249986215		90737.481709166	90731.479635666	90731.47980641601	90737.47980641601	90731.479641791	90737.478976041	6.0	726.5		3	5	1	0	0	40	700	750	90725.202465916	90725.339954791	90725.56508475	90725.835152166	90726.075132
90726.12980641601	5.35	0	90729.12980641601	5.349829249986215		90737.481709166	90731.479635666	90731.47980641601	90737.47980641601	90731.479641791	90737.478976041	6.0	720.0		3	5	1	0	0	40	700	750	90725.202465916	90725.339954791	90725.56508475	90725.835152166	90726.075132
90726.12980641601	5.35	1	90729.87980641601	5.349829249986215		90737.481709166	90731.479635666	90731.47980641601	90737.47980641601	90731.479641791	90737.478976041	6.0	733.92		3	5	1	0	0	40	700	750	90725.202465916	90725.339954791	90725.56508475	90725.835152166	90726.075132
90726.12980641601	5.35	0	90730.62980641601	5.349829249986215		90737.481709166	90731.479635666	90731.47980641601	90737.47980641601	90731.479641791	90737.478976041	6.0	727.83		3	5	1	0	0	40	700	750	90725.202465916	90725.339954791	90725.56508475	90725.835152166	90726.075132
90726.12980641601	5.35	0	90731.37980641601	5.349829249986215		90737.481709166	90731.479635666	90731.47980641601	90737.47980641601	90731.479641791	90737.478976041	6.0	708.99		3	5	1	0	0	40	700	750	90725.202465916	90725.339954791	90725.56508475	90725.835152166	90726.075132
90737.49889658301	5.35	0	90737.49889658301	5.3463987079885555		90748.848840125	90742.845295291	90742.84889658302	90748.84889658302	90742.84530075	90748.843918125	6.0	713.42		3	5	1	0	1	40	700	750	90725.202465916	90725.339954791	90725.56508475	90725.835152166	90726.075132
90737.49889658301	5.35	0	90738.24889658301	5.3463987079885555		90748.848840125	90742.845295291	90742.84889658302	90748.84889658302	90742.84530075	90748.843918125	6.0	720.14		3	5	1	0	1	40	700	750	90725.202465916	90725.339954791	90725.56508475	90725.835152166	90726.075132
90737.49889658301	5.35	0	90738.99889658301	5.3463987079885555		90748.848840125	90742.845295291	90742.84889658302	90748.84889658302	90742.84530075	90748.843918125	6.0	721.59		3	5	1	0	1	40	700	750	90725.202465916	90725.339954791	90725.56508475	90725.835152166	90726.075132
90737.49889658301	5.35	0	90739.74889658301	5.3463987079885555		90748.848840125	90742.845295291	90742.84889658302	90748.84889658302	90742.84530075	90748.843918125	6.0	689.53		3	5	1	0	1	40	700	750	90725.202465916	90725.339954791	90725.56508475	90725.835152166	90726.075132
90737.49889658301	5.35	0	90740.49889658301	5.3463987079885555		90748.848840125	90742.845295291	90742.84889658302	90748.84889658302	90742.84530075	90748.843918125	6.0	692.16		3	5	1	0	1	40	700	750	90725.202465916	90725.339954791	90725.56508475	90725.835152166	90726.075132
90737.49889658301	5.35	1	90741.24889658301	5.3463987079885555		90748.848840125	90742.845295291	90742.84889658302	90748.84889658302	90742.84530075	90748.843918125	6.0	741.52		3	5	1	0	1	40	700	750	90725.202465916	90725.339954791	90725.56508475	90725.835152166	90726.075132
90737.49889658301	5.35	0	90741.99889658301	5.3463987079885555		90748.848840125	90742.845295291	90742.84889658302	90748.84889658302	90742.84530075	90748.843918125	6.0	691.47		3	5	1	0	1	40	700	750	90725.202465916	90725.339954791	90725.56508475	90725.835152166	90726.075132
90737.49889658301	5.35	0	90742.74889658301	5.3463987079885555		90748.848840125	90742.845295291	90742.84889658302	90748.84889658302	90742.84530075	90748.843918125	6.0	696.03		3	5	1	0	1	40	700	750	90725.202465916	90725.339954791	90725.56508475	90725.835152166	90726.075132
90748.86321504101	5.35	0	90748.86321504101	5.3490694999927655		90758.71316575	90754.212284541	90754.21321504102	90758.71321504102	90754.21228975	90758.712058041	4.5	682.98		4	0	2	0	2	40	700	750	90725.202465916	90725.339954791	90725.56508475	90725.835152166	90726.075132
90748.86321504101	5.35	0	90749.61321504101	5.3490694999927655		90758.71316575	90754.212284541	90754.21321504102	90758.71321504102	90754.21228975	90758.712058041	4.5	685.77		4	0	2	0	2	40	700	750	90725.202465916	90725.339954791	90725.56508475	90725.835152166	90726.075132
90748.86321504101	5.35	0	90750.36321504101	5.3490694999927655		90758.71316575	90754.212284541	90754.21321504102	90758.71321504102	90754.21228975	90758.712058041	4.5	681.67		4	0	2	0	2	40	700	750	90725.202465916	90725.339954791	90725.56508475	90725.835152166	90726.075132
90748.86321504101	5.35	0	90751.11321504101	5.3490694999927655		90758.71316575	90754.212284541	90754.21321504102	90758.71321504102	90754.21228975	90758.712058041	4.5	690.3		4	0	2	0	2	40	700	750	90725.202465916	90725.339954791	90725.56508475	90725.835152166	90726.075132
90748.86321504101	5.35	0	90751.86321504101	5.3490694999927655		90758.71316575	90754.212284541	90754.21321504102	90758.71321504102	90754.21228975	90758.712058041	4.5	721.73		4	0	2	0	2	40	700	750	90725.202465916	90725.339954791	90725.56508475	90725.835152166	90726.075132
90748.86321504101	5.35	0	90752.61321504101	5.3490694999927655		90758.71316575	90754.212284541	90754.21321504102	90758.71321504102	90754.21228975	90758.712058041	4.5	709.69		4	0	2	0	2	40	700	750	90725.202465916	90725.339954791	90725.56508475	90725.835152166	90726.075132
90748.86321504101	5.35	0	90753.36321504101	5.3490694999927655		90758.71316575	90754.212284541	90754.21321504102	90758.71321504102	90754.21228975	90758.712058041	4.5	693.97		4	0	2	0	2	40	700	750	90725.202465916	90725.339954791	90725.56508475	90725.835152166	90726.075132
90748.86321504101	5.35	0	90754.11321504101	5.3490694999927655		90758.71316575	90754.212284541	90754.21321504102	90758.71321504102	90754.21228975	90758.712058041	4.5	708.81		4	0	2	0	2	40	700	750	90725.202465916	90725.339954791	90725.56508475	90725.835152166	90726.075132
90758.731603166	5.35	0	90758.731603166	5.347467583997059		90770.081546833	90764.07907075	90764.081603166	90770.081603166	90764.079076708	90770.078715583	6.0	705.36		3	2	0	0	3	40	700	750	90725.202465916	90725.339954791	90725.56508475	90725.835152166	90726.075132
90758.731603166	5.35	0	90759.481603166	5.347467583997059		90770.081546833	90764.07907075	90764.081603166	90770.081603166	90764.079076708	90770.078715583	6.0	702.82		3	2	0	0	3	40	700	750	90725.202465916	90725.339954791	90725.56508475	90725.835152166	90726.075132
90758.731603166	5.35	1	90760.231603166	5.347467583997059		90770.081546833	90764.07907075	90764.081603166	90770.081603166	90764.079076708	90770.078715583	6.0	736.45		3	2	0	0	3	40	700	750	90725.202465916	90725.339954791	90725.56508475	90725.835152166	90726.075132
90758.731603166	5.35	0	90760.981603166	5.347467583997059		90770.081546833	90764.07907075	90764.081603166	90770.081603166	90764.079076708	90770.078715583	6.0	703.69		3	2	0	0	3	40	700	750	90725.202465916	90725.339954791	90725.56508475	90725.835152166	90726.075132
90758.731603166	5.35	0	90761.731603166	5.347467583997059		90770.081546833	90764.07907075	90764.081603166	90770.081603166	90764.079076708	90770.078715583	6.0	705.64		3	2	0	0	3	40	700	750	90725.202465916	90725.339954791	90725.56508475	90725.835152166	90726.075132
90758.731603166	5.35	0	90762.481603166	5.347467583997059		90770.081546833	90764.07907075	90764.081603166	90770.081603166	90764.079076708	90770.078715583	6.0	702.37		3	2	0	0	3	40	700	750	90725.202465916	90725.339954791	90725.56508475	90725.835152166	90726.075132
90758.731603166	5.35	0	90763.231603166	5.347467583997059		90770.081546833	90764.07907075	90764.081603166	90770.081603166	90764.079076708	90770.078715583	6.0	658.54		3	2	0	0	3	40	700	750	90725.202465916	90725.339954791	90725.56508475	90725.835152166	90726.075132
90758.731603166	5.35	0	90763.981603166	5.347467583997059		90770.081546833	90764.07907075	90764.081603166	90770.081603166	90764.079076708	90770.078715583	6.0	669.27		3	2	0	0	3	40	700	750	90725.202465916	90725.339954791	90725.56508475	90725.835152166	90726.075132
90770.09810925	5.35	0	90770.09810925	5.345530541002518		90779.448061583	90775.443639791	90775.44810925	90779.44810925	90775.443644333	90779.443695666	4.0	679.25		3	4	0	0	4	40	700	750	90725.202465916	90725.339954791	90725.56508475	90725.835152166	90726.075132
90770.09810925	5.35	0	90770.84810925	5.345530541002518		90779.448061583	90775.443639791	90775.44810925	90779.44810925	90775.443644333	90779.443695666	4.0	684.02		3	4	0	0	4	40	700	750	90725.202465916	90725.339954791	90725.56508475	90725.835152166	90726.075132
90770.09810925	5.35	0	90771.59810925	5.345530541002518		90779.448061583	90775.443639791	90775.44810925	90779.44810925	90775.443644333	90779.443695666	4.0	664.84		3	4	0	0	4	40	700	750	90725.202465916	90725.339954791	90725.56508475	90725.835152166	90726.075132
90770.09810925	5.35	0	90772.34810925	5.345530541002518		90779.448061583	90775.443639791	90775.44810925	90779.44810925	90775.443644333	90779.443695666	4.0	677.74		3	4	0	0	4	40	700	750	90725.202465916	90725.339954791	90725.56508475	90725.835152166	90726.075132
90770.09810925	5.35	1	90773.09810925	5.345530541002518		90779.448061583	90775.443639791	90775.44810925	90779.44810925	90775.443644333	90779.443695666	4.0	745.44		3	4	0	0	4	40	700	750	90725.202465916	90725.339954791	90725.56508475	90725.835152166	90726.075132
90770.09810925	5.35	0	90773.84810925	5.345530541002518		90779.448061583	90775.443639791	90775.44810925	90779.44810925	90775.443644333	90779.443695666	4.0	661.82		3	4	0	0	4	40	700	750	90725.202465916	90725.339954791	90725.56508475	90725.835152166	90726.075132
90770.09810925	5.35	0	90774.59810925	5.345530541002518		90779.448061583	90775.443639791	90775.44810925	90779.44810925	90775.443644333	90779.443695666	4.0	677.97		3	4	0	0	4	40	700	750	90725.202465916	90725.339954791	90725.56508475	90725.835152166	90726.075132
90770.09810925	5.35	0	90775.34810925	5.345530541002518		90779.448061583	90775.443639791	90775.44810925	90779.44810925	90775.443644333	90779.443695666	4.0	653.59		3	4	0	0	4	40	700	750	90725.202465916	90725.339954791	90725.56508475	90725.835152166	90726.075132
90779.46493650001	5.35	0	90779.46493650001	5.346973124993383		90788.814889708	90784.811909625	90784.81493650001	90788.81493650001	90784.81191425	90788.81180150001	4.0	661.27		3	4	0	0	5	40	700	750	90725.202465916	90725.339954791	90725.56508475	90725.835152166	90726.075132
90779.46493650001	5.35	0	90780.21493650001	5.346973124993383		90788.814889708	90784.811909625	90784.81493650001	90788.81493650001	90784.81191425	90788.81180150001	4.0	666.8		3	4	0	0	5	40	700	750	90725.202465916	90725.339954791	90725.56508475	90725.835152166	90726.075132
90779.46493650001	5.35	0	90780.96493650001	5.346973124993383		90788.814889708	90784.811909625	90784.81493650001	90788.81493650001	90784.81191425	90788.81180150001	4.0	695.03		3	4	0	0	5	40	700	750	90725.202465916	90725.339954791	90725.56508475	90725.835152166	90726.075132
90779.46493650001	5.35	0	90781.71493650001	5.346973124993383		90788.814889708	90784.811909625	90784.81493650001	90788.81493650001	90784.81191425	90788.81180150001	4.0	685.25		3	4	0	0	5	40	700	750	90725.202465916	90725.339954791	90725.56508475	90725.835152166	90726.075132
90779.46493650001	5.35	1	90782.46493650001	5.346973124993383		90788.814889708	90784.811909625	90784.81493650001	90788.81493650001	90784.81191425	90788.81180150001	4.0	753.43		3	4	0	0	5	40	700	750	90725.202465916	90725.339954791	90725.56508475	90725.835152166	90726.075132
90779.46493650001	5.35	0	90783.21493650001	5.346973124993383		90788.814889708	90784.811909625	90784.81493650001	90788.81493650001	90784.81191425	90788.81180150001	4.0	689.46		3	4	0	0	5	40	700	750	90725.202465916	90725.339954791	90725.56508475	90725.835152166	90726.075132
90779.46493650001	5.35	0	90783.96493650001	5.346973124993383		90788.814889708	90784.811909625	90784.81493650001	90788.81493650001	90784.81191425	90788.81180150001	4.0	694.56		3	4	0	0	5	40	700	750	90725.202465916	90725.339954791	90725.56508475	90725.835152166	90726.075132
90779.46493650001	5.35	0	90784.71493650001	5.346973124993383		90788.814889708	90784.811909625	90784.81493650001	90788.81493650001	90784.81191425	90788.81180150001	4.0	722.1		3	4	0	0	5	40	700	750	90725.202465916	90725.339954791	90725.56508475	90725.835152166	90726.075132
90788.831764625	5.35	0	90788.831764625	5.347137832999579		90801.681699541	90794.178902458	90794.18176462501	90801.68176462501	90794.178908125	90801.676854833	7.5	670.98		3	2	0	0	6	40	700	750	90725.202465916	90725.339954791	90725.56508475	90725.835152166	90726.075132
90788.831764625	5.35	0	90789.581764625	5.347137832999579		90801.681699541	90794.178902458	90794.18176462501	90801.68176462501	90794.178908125	90801.676854833	7.5	685.88		3	2	0	0	6	40	700	750	90725.202465916	90725.339954791	90725.56508475	90725.835152166	90726.075132
90788.831764625	5.35	1	90790.331764625	5.347137832999579		90801.681699541	90794.178902458	90794.18176462501	90801.68176462501	90794.178908125	90801.676854833	7.5	759.5		3	2	0	0	6	40	700	750	90725.202465916	90725.339954791	90725.56508475	90725.835152166	90726.075132
90788.831764625	5.35	0	90791.081764625	5.347137832999579		90801.681699541	90794.178902458	90794.18176462501	90801.68176462501	90794.178908125	90801.676854833	7.5	672.95		3	2	0	0	6	40	700	750	90725.202465916	90725.339954791	90725.56508475	90725.835152166	90726.075132
90788.831764625	5.35	0	90791.831764625	5.347137832999579		90801.681699541	90794.178902458	90794.18176462501	90801.68176462501	90794.178908125	90801.676854833	7.5	714.26		3	2	0	0	6	40	700	750	90725.202465916	90725.339954791	90725.56508475	90725.835152166	90726.075132
90788.831764625	5.35	0	90792.581764625	5.347137832999579		90801.681699541	90794.178902458	90794.18176462501	90801.68176462501	90794.178908125	90801.676854833	7.5	681.25		3	2	0	0	6	40	700	750	90725.202465916	90725.339954791	90725.56508475	90725.835152166	90726.075132
90788.831764625	5.35	0	90793.331764625	5.347137832999579		90801.681699541	90794.178902458	90794.18176462501	90801.68176462501	90794.178908125	90801.676854833	7.5	699.1		3	2	0	0	6	40	700	750	90725.202465916	90725.339954791	90725.56508475	90725.835152166	90726.075132
90788.831764625	5.35	0	90794.081764625	5.347137832999579		90801.681699541	90794.178902458	90794.18176462501	90801.68176462501	90794.178908125	90801.676854833	7.5	699.26		3	2	0	0	6	40	700	750	90725.202465916	90725.339954791	90725.56508475	90725.835152166	90726.075132
90801.696386958	5.35	0	90801.696386958	5.34709091699915		90811.046338708	90807.043477875	90807.04638695801	90811.04638695801	90807.043482125	90811.042706333	4.0	691.16		3	4	0	0	7	40	700	750	90725.202465916	90725.339954791	90725.56508475	90725.835152166	90726.075132
90801.696386958	5.35	0	90802.446386958	5.34709091699915		90811.046338708	90807.043477875	90807.04638695801	90811.04638695801	90807.043482125	90811.042706333	4.0	700.18		3	4	0	0	7	40	700	750	90725.202465916	90725.339954791	90725.56508475	90725.835152166	90726.075132
90801.696386958	5.35	0	90803.196386958	5.34709091699915		90811.046338708	90807.043477875	90807.04638695801	90811.04638695801	90807.043482125	90811.042706333	4.0	701.97		3	4	0	0	7	40	700	750	90725.202465916	90725.339954791	90725.56508475	90725.835152166	90726.075132
90801.696386958	5.35	0	90803.946386958	5.34709091699915		90811.046338708	90807.043477875	90807.04638695801	90811.04638695801	90807.043482125	90811.042706333	4.0	703.83		3	4	0	0	7	40	700	750	90725.202465916	90725.339954791	90725.56508475	90725.835152166	90726.075132
90801.696386958	5.35	1	90804.696386958	5.34709091699915		90811.046338708	90807.043477875	90807.04638695801	90811.04638695801	90807.043482125	90811.042706333	4.0	725.69		3	4	0	0	7	40	700	750	90725.202465916	90725.339954791	90725.56508475	90725.835152166	90726.075132
90801.696386958	5.35	0	90805.446386958	5.34709091699915		90811.046338708	90807.043477875	90807.04638695801	90811.04638695801	90807.043482125	90811.042706333	4.0	683.52		3	4	0	0	7	40	700	750	90725.202465916	90725.339954791	90725.56508475	90725.835152166	90726.075132
90801.696386958	5.35	0	90806.196386958	5.34709091699915		90811.046338708	90807.043477875	90807.04638695801	90811.04638695801	90807.043482125	90811.042706333	4.0	709.66		3	4	0	0	7	40	700	750	90725.202465916	90725.339954791	90725.56508475	90725.835152166	90726.075132
90801.696386958	5.35	0	90806.946386958	5.34709091699915		90811.046338708	90807.043477875	90807.04638695801	90811.04638695801	90807.043482125	90811.042706333	4.0	703.72		3	4	0	0	7	40	700	750	90725.202465916	90725.339954791	90725.56508475	90725.835152166	90726.075132
90811.06102612501	5.35	0	90811.06102612501	5.348009249995812		90819.410983833	90816.409035375	90816.41102612502	90819.41102612502	90816.4090425	90819.408913791	3.0	721.09		3	3	0	0	8	40	700	750	90725.202465916	90725.339954791	90725.56508475	90725.835152166	90726.075132
90811.06102612501	5.35	0	90811.81102612501	5.348009249995812		90819.410983833	90816.409035375	90816.41102612502	90819.41102612502	90816.4090425	90819.408913791	3.0	722.69		3	3	0	0	8	40	700	750	90725.202465916	90725.339954791	90725.56508475	90725.835152166	90726.075132
90811.06102612501	5.35	0	90812.56102612501	5.348009249995812		90819.410983833	90816.409035375	90816.41102612502	90819.41102612502	90816.4090425	90819.408913791	3.0	717.42		3	3	0	0	8	40	700	750	90725.202465916	90725.339954791	90725.56508475	90725.835152166	90726.075132
90811.06102612501	5.35	1	90813.31102612501	5.348009249995812		90819.410983833	90816.409035375	90816.41102612502	90819.41102612502	90816.4090425	90819.408913791	3.0	743.92		3	3	0	0	8	40	700	750	90725.202465916	90725.339954791	90725.56508475	90725.835152166	90726.075132
90811.06102612501	5.35	0	90814.06102612501	5.348009249995812		90819.410983833	90816.409035375	90816.41102612502	90819.41102612502	90816.4090425	90819.408913791	3.0	670.4		3	3	0	0	8	40	700	750	90725.202465916	90725.339954791	90725.56508475	90725.835152166	90726.075132
90811.06102612501	5.35	0	90814.81102612501	5.348009249995812		90819.410983833	90816.409035375	90816.41102612502	90819.41102612502	90816.4090425	90819.408913791	3.0	704.5		3	3	0	0	8	40	700	750	90725.202465916	90725.339954791	90725.56508475	90725.835152166	90726.075132
90811.06102612501	5.35	0	90815.56102612501	5.348009249995812		90819.410983833	90816.409035375	90816.41102612502	90819.41102612502	90816.4090425	90819.408913791	3.0	732.95		3	3	0	0	8	40	700	750	90725.202465916	90725.339954791	90725.56508475	90725.835152166	90726.075132
90811.06102612501	5.35	0	90816.31102612501	5.348009249995812		90819.410983833	90816.409035375	90816.41102612502	90819.41102612502	90816.4090425	90819.408913791	3.0	744.92		3	3	0	0	8	40	700	750	90725.202465916	90725.339954791	90725.56508475	90725.835152166	90726.075132
90819.42848375	5.35	0	90819.42848375	5.3472107499983395		90831.27842354099	90824.7756945	90824.77848375001	90831.27848375001	90824.775701208	90831.278301625	6.5	746.03		4	0	2	0	9	40	700	750	90725.202465916	90725.339954791	90725.56508475	90725.835152166	90726.075132
90819.42848375	5.35	0	90820.17848375	5.3472107499983395		90831.27842354099	90824.7756945	90824.77848375001	90831.27848375001	90824.775701208	90831.278301625	6.5	754.99		4	0	2	0	9	40	700	750	90725.202465916	90725.339954791	90725.56508475	90725.835152166	90726.075132
90819.42848375	5.35	0	90820.92848375	5.3472107499983395		90831.27842354099	90824.7756945	90824.77848375001	90831.27848375001	90824.775701208	90831.278301625	6.5	768.46		4	0	2	0	9	40	700	750	90725.202465916	90725.339954791	90725.56508475	90725.835152166	90726.075132
90819.42848375	5.35	0	90821.67848375	5.3472107499983395		90831.27842354099	90824.7756945	90824.77848375001	90831.27848375001	90824.775701208	90831.278301625	6.5	791.94		4	0	2	0	9	40	700	750	90725.202465916	90725.339954791	90725.56508475	90725.835152166	90726.075132
90819.42848375	5.35	0	90822.42848375	5.3472107499983395		90831.27842354099	90824.7756945	90824.77848375001	90831.27848375001	90824.775701208	90831.278301625	6.5	770.02		4	0	2	0	9	40	700	750	90725.202465916	90725.339954791	90725.56508475	90725.835152166	90726.075132
90819.42848375	5.35	0	90823.17848375	5.3472107499983395		90831.27842354099	90824.7756945	90824.77848375001	90831.27848375001	90824.775701208	90831.278301625	6.5	768.33		4	0	2	0	9	40	700	750	90725.202465916	90725.339954791	90725.56508475	90725.835152166	90726.075132
90819.42848375	5.35	0	90823.92848375	5.3472107499983395		90831.27842354099	90824.7756945	90824.77848375001	90831.27848375001	90824.775701208	90831.278301625	6.5	772.67		4	0	2	0	9	40	700	750	90725.202465916	90725.339954791	90725.56508475	90725.835152166	90726.075132
90819.42848375	5.35	0	90824.67848375	5.3472107499983395		90831.27842354099	90824.7756945	90824.77848375001	90831.27848375001	90824.775701208	90831.278301625	6.5	782.64		4	0	2	0	9	40	700	750	90725.202465916	90725.339954791	90725.56508475	90725.835152166	90726.075132
90831.298110958	5.35	0	90831.298110958	5.3464787080010865		90842.148056125	90836.644589666	90836.648110958	90842.148110958	90836.644595083	90842.144952541	5.5	778.5		3	4	1	0	10	40	700	750	90725.202465916	90725.339954791	90725.56508475	90725.835152166	90726.075132
90831.298110958	5.35	0	90832.048110958	5.3464787080010865		90842.148056125	90836.644589666	90836.648110958	90842.148110958	90836.644595083	90842.144952541	5.5	775.12		3	4	1	0	10	40	700	750	90725.202465916	90725.339954791	90725.56508475	90725.835152166	90726.075132
90831.298110958	5.35	0	90832.798110958	5.3464787080010865		90842.148056125	90836.644589666	90836.648110958	90842.148110958	90836.644595083	90842.144952541	5.5	789.61		3	4	1	0	10	40	700	750	90725.202465916	90725.339954791	90725.56508475	90725.835152166	90726.075132
90831.298110958	5.35	0	90833.548110958	5.3464787080010865		90842.148056125	90836.644589666	90836.648110958	90842.148110958	90836.644595083	90842.144952541	5.5	791.68		3	4	1	0	10	40	700	750	90725.202465916	90725.339954791	90725.56508475	90725.835152166	90726.075132
90831.298110958	5.35	1	90834.298110958	5.3464787080010865		90842.148056125	90836.644589666	90836.648110958	90842.148110958	90836.644595083	90842.144952541	5.5	726.89		3	4	1	0	10	40	700	750	90725.202465916	90725.339954791	90725.56508475	90725.835152166	90726.075132
90831.298110958	5.35	0	90835.048110958	5.3464787080010865		90842.148056125	90836.644589666	90836.648110958	90842.148110958	90836.644595083	90842.144952541	5.5	793.32		3	4	1	0	10	40	700	750	90725.202465916	90725.339954791	90725.56508475	90725.835152166	90726.075132
90831.298110958	5.35	0	90835.798110958	5.3464787080010865		90842.148056125	90836.644589666	90836.648110958	90842.148110958	90836.644595083	90842.144952541	5.5	787.87		3	4	1	0	10	40	700	750	90725.202465916	90725.339954791	90725.56508475	90725.835152166	90726.075132
90831.298110958	5.35	0	90836.548110958	5.3464787080010865		90842.148056125	90836.644589666	90836.648110958	90842.148110958	90836.644595083	90842.144952541	5.5	772.73		3	4	1	0	10	40	700	750	90725.202465916	90725.339954791	90725.56508475	90725.835152166	90726.075132
90842.164618541	5.35	0	90842.164618541	5.347263833988109		90854.514556125	90847.511882375	90847.51461854101	90854.51461854101	90847.511887375	90854.511765666	7.0	747.2		3	2	0	0	11	40	700	750	90725.202465916	90725.339954791	90725.56508475	90725.835152166	90726.075132
90842.164618541	5.35	0	90842.914618541	5.347263833988109		90854.514556125	90847.511882375	90847.51461854101	90854.51461854101	90847.511887375	90854.511765666	7.0	744.08		3	2	0	0	11	40	700	750	90725.202465916	90725.339954791	90725.56508475	90725.835152166	90726.075132
90842.164618541	5.35	1	90843.664618541	5.347263833988109		90854.514556125	90847.511882375	90847.51461854101	90854.51461854101	90847.511887375	90854.511765666	7.0	749.53		3	2	0	0	11	40	700	750	90725.202465916	90725.339954791	90725.56508475	90725.835152166	90726.075132
90842.164618541	5.35	0	90844.414618541	5.347263833988109		90854.514556125	90847.511882375	90847.51461854101	90854.51461854101	90847.511887375	90854.511765666	7.0	728.55		3	2	0	0	11	40	700	750	90725.202465916	90725.339954791	90725.56508475	90725.835152166	90726.075132
90842.164618541	5.35	0	90845.164618541	5.347263833988109		90854.514556125	90847.511882375	90847.51461854101	90854.51461854101	90847.511887375	90854.511765666	7.0	706.91		3	2	0	0	11	40	700	750	90725.202465916	90725.339954791	90725.56508475	90725.835152166	90726.075132
90842.164618541	5.35	0	90845.914618541	5.347263833988109		90854.514556125	90847.511882375	90847.51461854101	90854.51461854101	90847.511887375	90854.511765666	7.0	688.38		3	2	0	0	11	40	700	750	90725.202465916	90725.339954791	90725.56508475	90725.835152166	90726.075132
90842.164618541	5.35	0	90846.664618541	5.347263833988109		90854.514556125	90847.511882375	90847.51461854101	90854.51461854101	90847.511887375	90854.511765666	7.0	706.53		3	2	0	0	11	40	700	750	90725.202465916	90725.339954791	90725.56508475	90725.835152166	90726.075132
90842.164618541	5.35	0	90847.414618541	5.347263833988109		90854.514556125	90847.511882375	90847.51461854101	90854.51461854101	90847.511887375	90854.511765666	7.0	674.79		3	2	0	0	11	40	700	750	90725.202465916	90725.339954791	90725.56508475	90725.835152166	90726.075132
90854.53111854101	5.35	0	90854.53111854101	5.346323916994152		90864.381070041	90859.877442458	90859.88111854102	90864.38111854102	90859.877448208	90864.378268833	4.5	666.86		3	3	0	0	12	40	700	750	90725.202465916	90725.339954791	90725.56508475	90725.835152166	90726.075132
90854.53111854101	5.35	0	90855.28111854101	5.346323916994152		90864.381070041	90859.877442458	90859.88111854102	90864.38111854102	90859.877448208	90864.378268833	4.5	679.69		3	3	0	0	12	40	700	750	90725.202465916	90725.339954791	90725.56508475	90725.835152166	90726.075132
90854.53111854101	5.35	0	90856.03111854101	5.346323916994152		90864.381070041	90859.877442458	90859.88111854102	90864.38111854102	90859.877448208	90864.378268833	4.5	669.64		3	3	0	0	12	40	700	750	90725.202465916	90725.339954791	90725.56508475	90725.835152166	90726.075132
90854.53111854101	5.35	1	90856.78111854101	5.346323916994152		90864.381070041	90859.877442458	90859.88111854102	90864.38111854102	90859.877448208	90864.378268833	4.5	749.03		3	3	0	0	12	40	700	750	90725.202465916	90725.339954791	90725.56508475	90725.835152166	90726.075132
90854.53111854101	5.35	0	90857.53111854101	5.346323916994152		90864.381070041	90859.877442458	90859.88111854102	90864.38111854102	90859.877448208	90864.378268833	4.5	662.01		3	3	0	0	12	40	700	750	90725.202465916	90725.339954791	90725.56508475	90725.835152166	90726.075132
90854.53111854101	5.35	0	90858.28111854101	5.346323916994152		90864.381070041	90859.877442458	90859.88111854102	90864.38111854102	90859.877448208	90864.378268833	4.5	667.01		3	3	0	0	12	40	700	750	90725.202465916	90725.339954791	90725.56508475	90725.835152166	90726.075132
90854.53111854101	5.35	0	90859.03111854101	5.346323916994152		90864.381070041	90859.877442458	90859.88111854102	90864.38111854102	90859.877448208	90864.378268833	4.5	688.5		3	3	0	0	12	40	700	750	90725.202465916	90725.339954791	90725.56508475	90725.835152166	90726.075132
90854.53111854101	5.35	0	90859.78111854101	5.346323916994152		90864.381070041	90859.877442458	90859.88111854102	90864.38111854102	90859.877448208	90864.378268833	4.5	674.53		3	3	0	0	12	40	700	750	90725.202465916	90725.339954791	90725.56508475	90725.835152166	90726.075132
90864.39763237501	5.35	0	90864.39763237501	5.34568879098515		90875.747576041	90869.743321166	90869.74763237502	90875.74763237502	90869.743326333	90875.743127083	6.0	699.98		3	4	0	0	13	40	700	750	90725.202465916	90725.339954791	90725.56508475	90725.835152166	90726.075132
90864.39763237501	5.35	0	90865.14763237501	5.34568879098515		90875.747576041	90869.743321166	90869.74763237502	90875.74763237502	90869.743326333	90875.743127083	6.0	698.98		3	4	0	0	13	40	700	750	90725.202465916	90725.339954791	90725.56508475	90725.835152166	90726.075132
90864.39763237501	5.35	0	90865.89763237501	5.34568879098515		90875.747576041	90869.743321166	90869.74763237502	90875.74763237502	90869.743326333	90875.743127083	6.0	695.33		3	4	0	0	13	40	700	750	90725.202465916	90725.339954791	90725.56508475	90725.835152166	90726.075132
90864.39763237501	5.35	0	90866.64763237501	5.34568879098515		90875.747576041	90869.743321166	90869.74763237502	90875.74763237502	90869.743326333	90875.743127083	6.0	710.76		3	4	0	0	13	40	700	750	90725.202465916	90725.339954791	90725.56508475	90725.835152166	90726.075132
90864.39763237501	5.35	1	90867.39763237501	5.34568879098515		90875.747576041	90869.743321166	90869.74763237502	90875.74763237502	90869.743326333	90875.743127083	6.0	736.39		3	4	0	0	13	40	700	750	90725.202465916	90725.339954791	90725.56508475	90725.835152166	90726.075132
90864.39763237501	5.35	0	90868.14763237501	5.34568879098515		90875.747576041	90869.743321166	90869.74763237502	90875.74763237502	90869.743326333	90875.743127083	6.0	701.62		3	4	0	0	13	40	700	750	90725.202465916	90725.339954791	90725.56508475	90725.835152166	90726.075132
90864.39763237501	5.35	0	90868.89763237501	5.34568879098515		90875.747576041	90869.743321166	90869.74763237502	90875.74763237502	90869.743326333	90875.743127083	6.0	695.23		3	4	0	0	13	40	700	750	90725.202465916	90725.339954791	90725.56508475	90725.835152166	90726.075132
90864.39763237501	5.35	0	90869.64763237501	5.34568879098515		90875.747576041	90869.743321166	90869.74763237502	90875.74763237502	90869.743326333	90875.743127083	6.0	699.0		3	4	0	0	13	40	700	750	90725.202465916	90725.339954791	90725.56508475	90725.835152166	90726.075132
90875.76257595801	5.35	0	90875.76257595801	5.349059916989063		90888.112515625	90881.111635875	90881.11257595802	90888.11257595802	90881.111640375	90888.111441125	7.0	702.77		3	2	0	0	14	40	700	750	90725.202465916	90725.339954791	90725.56508475	90725.835152166	90726.075132
90875.76257595801	5.35	0	90876.51257595801	5.349059916989063		90888.112515625	90881.111635875	90881.11257595802	90888.11257595802	90881.111640375	90888.111441125	7.0	671.51		3	2	0	0	14	40	700	750	90725.202465916	90725.339954791	90725.56508475	90725.835152166	90726.075132
90875.76257595801	5.35	1	90877.26257595801	5.349059916989063		90888.112515625	90881.111635875	90881.11257595802	90888.11257595802	90881.111640375	90888.111441125	7.0	744.2		3	2	0	0	14	40	700	750	90725.202465916	90725.339954791	90725.56508475	90725.835152166	90726.075132
90875.76257595801	5.35	0	90878.01257595801	5.349059916989063		90888.112515625	90881.111635875	90881.11257595802	90888.11257595802	90881.111640375	90888.111441125	7.0	714.55		3	2	0	0	14	40	700	750	90725.202465916	90725.339954791	90725.56508475	90725.835152166	90726.075132
90875.76257595801	5.35	0	90878.76257595801	5.349059916989063		90888.112515625	90881.111635875	90881.11257595802	90888.11257595802	90881.111640375	90888.111441125	7.0	707.3		3	2	0	0	14	40	700	750	90725.202465916	90725.339954791	90725.56508475	90725.835152166	90726.075132
90875.76257595801	5.35	0	90879.51257595801	5.349059916989063		90888.112515625	90881.111635875	90881.11257595802	90888.11257595802	90881.111640375	90888.111441125	7.0	701.44		3	2	0	0	14	40	700	750	90725.202465916	90725.339954791	90725.56508475	90725.835152166	90726.075132
90875.76257595801	5.35	0	90880.26257595801	5.349059916989063		90888.112515625	90881.111635875	90881.11257595802	90888.11257595802	90881.111640375	90888.111441125	7.0	704.31		3	2	0	0	14	40	700	750	90725.202465916	90725.339954791	90725.56508475	90725.835152166	90726.075132
90875.76257595801	5.35	0	90881.01257595801	5.349059916989063		90888.112515625	90881.111635875	90881.11257595802	90888.11257595802	90881.111640375	90888.111441125	7.0	706.03		3	2	0	0	14	40	700	750	90725.202465916	90725.339954791	90725.56508475	90725.835152166	90726.075132
90888.13126550001	5.35	0	90888.13126550001	5.347225249992334		90900.981202333	90893.47849075	90893.48126550001	90900.98126550001	90893.478496833	90900.976352625	7.5	740.25		3	4	1	0	15	40	700	750	90725.202465916	90725.339954791	90725.56508475	90725.835152166	90726.075132
90888.13126550001	5.35	0	90888.88126550001	5.347225249992334		90900.981202333	90893.47849075	90893.48126550001	90900.98126550001	90893.478496833	90900.976352625	7.5	750.24		3	4	1	0	15	40	700	750	90725.202465916	90725.339954791	90725.56508475	90725.835152166	90726.075132
90888.13126550001	5.35	0	90889.63126550001	5.347225249992334		90900.981202333	90893.47849075	90893.48126550001	90900.98126550001	90893.478496833	90900.976352625	7.5	735.44		3	4	1	0	15	40	700	750	90725.202465916	90725.339954791	90725.56508475	90725.835152166	90726.075132
90888.13126550001	5.35	0	90890.38126550001	5.347225249992334		90900.981202333	90893.47849075	90893.48126550001	90900.98126550001	90893.478496833	90900.976352625	7.5	759.2		3	4	1	0	15	40	700	750	90725.202465916	90725.339954791	90725.56508475	90725.835152166	90726.075132
90888.13126550001	5.35	1	90891.13126550001	5.347225249992334		90900.981202333	90893.47849075	90893.48126550001	90900.98126550001	90893.478496833	90900.976352625	7.5	742.9		3	4	1	0	15	40	700	750	90725.202465916	90725.339954791	90725.56508475	90725.835152166	90726.075132
90888.13126550001	5.35	0	90891.88126550001	5.347225249992334		90900.981202333	90893.47849075	90893.48126550001	90900.98126550001	90893.478496833	90900.976352625	7.5	769.0		3	4	1	0	15	40	700	750	90725.202465916	90725.339954791	90725.56508475	90725.835152166	90726.075132
90888.13126550001	5.35	0	90892.63126550001	5.347225249992334		90900.981202333	90893.47849075	90893.48126550001	90900.98126550001	90893.478496833	90900.976352625	7.5	766.82		3	4	1	0	15	40	700	750	90725.202465916	90725.339954791	90725.56508475	90725.835152166	90726.075132
90888.13126550001	5.35	0	90893.38126550001	5.347225249992334		90900.981202333	90893.47849075	90893.48126550001	90900.98126550001	90893.478496833	90900.976352625	7.5	735.36		3	4	1	0	15	40	700	750	90725.202465916	90725.339954791	90725.56508475	90725.835152166	90726.075132
90900.99588975	5.35	0	90900.99588975	5.347295332991052		90909.345848	90906.343185083	90906.34588975001	90909.34588975001	90906.34319	90909.343057916	3.0	759.93		3	6	1	0	16	40	700	750	90725.202465916	90725.339954791	90725.56508475	90725.835152166	90726.075132
90900.99588975	5.35	0	90901.74588975	5.347295332991052		90909.345848	90906.343185083	90906.34588975001	90909.34588975001	90906.34319	90909.343057916	3.0	763.33		3	6	1	0	16	40	700	750	90725.202465916	90725.339954791	90725.56508475	90725.835152166	90726.075132
90900.99588975	5.35	0	90902.49588975	5.347295332991052		90909.345848	90906.343185083	90906.34588975001	90909.34588975001	90906.34319	90909.343057916	3.0	757.45		3	6	1	0	16	40	700	750	90725.202465916	90725.339954791	90725.56508475	90725.835152166	90726.075132
90900.99588975	5.35	0	90903.24588975	5.347295332991052		90909.345848	90906.343185083	90906.34588975001	90909.34588975001	90906.34319	90909.343057916	3.0	741.22		3	6	1	0	16	40	700	750	90725.202465916	90725.339954791	90725.56508475	90725.835152166	90726.075132
90900.99588975	5.35	0	90903.99588975	5.347295332991052		90909.345848	90906.343185083	90906.34588975001	90909.34588975001	90906.34319	90909.343057916	3.0	761.04		3	6	1	0	16	40	700	750	90725.202465916	90725.339954791	90725.56508475	90725.835152166	90726.075132
90900.99588975	5.35	0	90904.74588975	5.347295332991052		90909.345848	90906.343185083	90906.34588975001	90909.34588975001	90906.34319	90909.343057916	3.0	743.22		3	6	1	0	16	40	700	750	90725.202465916	90725.339954791	90725.56508475	90725.835152166	90726.075132
90900.99588975	5.35	1	90905.49588975	5.347295332991052		90909.345848	90906.343185083	90906.34588975001	90909.34588975001	90906.34319	90909.343057916	3.0	742.29		3	6	1	0	16	40	700	750	90725.202465916	90725.339954791	90725.56508475	90725.835152166	90726.075132
90900.99588975	5.35	0	90906.24588975	5.347295332991052		90909.345848	90906.343185083	90906.34588975001	90909.34588975001	90906.34319	90909.343057916	3.0	739.68		3	6	1	0	16	40	700	750	90725.202465916	90725.339954791	90725.56508475	90725.835152166	90726.075132
90909.36428541601	5.35	0	90909.36428541601	5.347398624988273		90920.214231625	90914.711684041	90914.71428541602	90920.21428541602	90914.711693	90920.211370958	5.5	726.63		3	5	1	0	17	40	700	750	90725.202465916	90725.339954791	90725.56508475	90725.835152166	90726.075132
90909.36428541601	5.35	0	90910.11428541601	5.347398624988273		90920.214231625	90914.711684041	90914.71428541602	90920.21428541602	90914.711693	90920.211370958	5.5	758.89		3	5	1	0	17	40	700	750	90725.202465916	90725.339954791	90725.56508475	90725.835152166	90726.075132
90909.36428541601	5.35	0	90910.86428541601	5.347398624988273		90920.214231625	90914.711684041	90914.71428541602	90920.21428541602	90914.711693	90920.211370958	5.5	732.57		3	5	1	0	17	40	700	750	90725.202465916	90725.339954791	90725.56508475	90725.835152166	90726.075132
90909.36428541601	5.35	0	90911.61428541601	5.347398624988273		90920.214231625	90914.711684041	90914.71428541602	90920.21428541602	90914.711693	90920.211370958	5.5	741.09		3	5	1	0	17	40	700	750	90725.202465916	90725.339954791	90725.56508475	90725.835152166	90726.075132
90909.36428541601	5.35	0	90912.36428541601	5.347398624988273		90920.214231625	90914.711684041	90914.71428541602	90920.21428541602	90914.711693	90920.211370958	5.5	729.79		3	5	1	0	17	40	700	750	90725.202465916	90725.339954791	90725.56508475	90725.835152166	90726.075132
90909.36428541601	5.35	1	90913.11428541601	5.347398624988273		90920.214231625	90914.711684041	90914.71428541602	90920.21428541602	90914.711693	90920.211370958	5.5	731.33		3	5	1	0	17	40	700	750	90725.202465916	90725.339954791	90725.56508475	90725.835152166	90726.075132
90909.36428541601	5.35	0	90913.86428541601	5.347398624988273		90920.214231625	90914.711684041	90914.71428541602	90920.21428541602	90914.711693	90920.211370958	5.5	731.24		3	5	1	0	17	40	700	750	90725.202465916	90725.339954791	90725.56508475	90725.835152166	90726.075132
90909.36428541601	5.35	0	90914.61428541601	5.347398624988273		90920.214231625	90914.711684041	90914.71428541602	90920.21428541602	90914.711693	90920.211370958	5.5	717.67		3	5	1	0	17	40	700	750	90725.202465916	90725.339954791	90725.56508475	90725.835152166	90726.075132
90920.229231541	5.35	0	90920.229231541	5.3494324589992175		90930.079182791	90925.578664	90925.579231541	90930.079231541	90925.578669708	90930.077883583	4.5	710.99		3	3	0	0	18	40	700	750	90725.202465916	90725.339954791	90725.56508475	90725.835152166	90726.075132
90920.229231541	5.35	0	90920.979231541	5.3494324589992175		90930.079182791	90925.578664	90925.579231541	90930.079231541	90925.578669708	90930.077883583	4.5	670.77		3	3	0	0	18	40	700	750	90725.202465916	90725.339954791	90725.56508475	90725.835152166	90726.075132
90920.229231541	5.35	0	90921.729231541	5.3494324589992175		90930.079182791	90925.578664	90925.579231541	90930.079231541	90925.578669708	90930.077883583	4.5	692.89		3	3	0	0	18	40	700	750	90725.202465916	90725.339954791	90725.56508475	90725.835152166	90726.075132
90920.229231541	5.35	1	90922.479231541	5.3494324589992175		90930.079182791	90925.578664	90925.579231541	90930.079231541	90925.578669708	90930.077883583	4.5	744.24		3	3	0	0	18	40	700	750	90725.202465916	90725.339954791	90725.56508475	90725.835152166	90726.075132
90920.229231541	5.35	0	90923.229231541	5.3494324589992175		90930.079182791	90925.578664	90925.579231541	90930.079231541	90925.578669708	90930.077883583	4.5	711.27		3	3	0	0	18	40	700	750	90725.202465916	90725.339954791	90725.56508475	90725.835152166	90726.075132
90920.229231541	5.35	0	90923.979231541	5.3494324589992175		90930.079182791	90925.578664	90925.579231541	90930.079231541	90925.578669708	90930.077883583	4.5	716.1		3	3	0	0	18	40	700	750	90725.202465916	90725.339954791	90725.56508475	90725.835152166	90726.075132
90920.229231541	5.35	0	90924.729231541	5.3494324589992175		90930.079182791	90925.578664	90925.579231541	90930.079231541	90925.578669708	90930.077883583	4.5	742.1		3	3	0	0	18	40	700	750	90725.202465916	90725.339954791	90725.56508475	90725.835152166	90726.075132
90920.229231541	5.35	0	90925.479231541	5.3494324589992175		90930.079182791	90925.578664	90925.579231541	90930.079231541	90925.578669708	90930.077883583	4.5	757.93		3	3	0	0	18	40	700	750	90725.202465916	90725.339954791	90725.56508475	90725.835152166	90726.075132
90930.09793270801	5.35	0	90930.09793270801	5.347265332980896		90942.947869666	90935.445198041	90935.44793270802	90942.94793270802	90935.445203833	90942.942854083	7.5	751.03		3	4	1	0	19	40	700	750	90725.202465916	90725.339954791	90725.56508475	90725.835152166	90726.075132
90930.09793270801	5.35	0	90930.84793270801	5.347265332980896		90942.947869666	90935.445198041	90935.44793270802	90942.94793270802	90935.445203833	90942.942854083	7.5	713.69		3	4	1	0	19	40	700	750	90725.202465916	90725.339954791	90725.56508475	90725.835152166	90726.075132
90930.09793270801	5.35	0	90931.59793270801	5.347265332980896		90942.947869666	90935.445198041	90935.44793270802	90942.94793270802	90935.445203833	90942.942854083	7.5	716.87		3	4	1	0	19	40	700	750	90725.202465916	90725.339954791	90725.56508475	90725.835152166	90726.075132
90930.09793270801	5.35	0	90932.34793270801	5.347265332980896		90942.947869666	90935.445198041	90935.44793270802	90942.94793270802	90935.445203833	90942.942854083	7.5	717.58		3	4	1	0	19	40	700	750	90725.202465916	90725.339954791	90725.56508475	90725.835152166	90726.075132
90930.09793270801	5.35	1	90933.09793270801	5.347265332980896		90942.947869666	90935.445198041	90935.44793270802	90942.94793270802	90935.445203833	90942.942854083	7.5	725.89		3	4	1	0	19	40	700	750	90725.202465916	90725.339954791	90725.56508475	90725.835152166	90726.075132
90930.09793270801	5.35	0	90933.84793270801	5.347265332980896		90942.947869666	90935.445198041	90935.44793270802	90942.94793270802	90935.445203833	90942.942854083	7.5	723.01		3	4	1	0	19	40	700	750	90725.202465916	90725.339954791	90725.56508475	90725.835152166	90726.075132
90930.09793270801	5.35	0	90934.59793270801	5.347265332980896		90942.947869666	90935.445198041	90935.44793270802	90942.94793270802	90935.445203833	90942.942854083	7.5	721.21		3	4	1	0	19	40	700	750	90725.202465916	90725.339954791	90725.56508475	90725.835152166	90726.075132
90930.09793270801	5.35	0	90935.34793270801	5.347265332980896		90942.947869666	90935.445198041	90935.44793270802	90942.94793270802	90935.445203833	90942.942854083	7.5	711.18		3	4	1	0	19	40	700	750	90725.202465916	90725.339954791	90725.56508475	90725.835152166	90726.075132
90942.964119583	5.35	0	90942.964119583	5.349735374999		90953.314068041	90948.313854958	90948.31411958301	90953.31411958301	90948.313861416	90953.311398958	5.0	728.56		3	6	1	0	20	40	700	750	90725.202465916	90725.339954791	90725.56508475	90725.835152166	90726.075132
90942.964119583	5.35	0	90943.714119583	5.349735374999		90953.314068041	90948.313854958	90948.31411958301	90953.31411958301	90948.313861416	90953.311398958	5.0	710.53		3	6	1	0	20	40	700	750	90725.202465916	90725.339954791	90725.56508475	90725.835152166	90726.075132
90942.964119583	5.35	0	90944.464119583	5.349735374999		90953.314068041	90948.313854958	90948.31411958301	90953.31411958301	90948.313861416	90953.311398958	5.0	738.43		3	6	1	0	20	40	700	750	90725.202465916	90725.339954791	90725.56508475	90725.835152166	90726.075132
90942.964119583	5.35	0	90945.214119583	5.349735374999		90953.314068041	90948.313854958	90948.31411958301	90953.31411958301	90948.313861416	90953.311398958	5.0	713.06		3	6	1	0	20	40	700	750	90725.202465916	90725.339954791	90725.56508475	90725.835152166	90726.075132
90942.964119583	5.35	0	90945.964119583	5.349735374999		90953.314068041	90948.313854958	90948.31411958301	90953.31411958301	90948.313861416	90953.311398958	5.0	740.42		3	6	1	0	20	40	700	750	90725.202465916	90725.339954791	90725.56508475	90725.835152166	90726.075132
90942.964119583	5.35	0	90946.714119583	5.349735374999		90953.314068041	90948.313854958	90948.31411958301	90953.31411958301	90948.313861416	90953.311398958	5.0	707.44		3	6	1	0	20	40	700	750	90725.202465916	90725.339954791	90725.56508475	90725.835152166	90726.075132
90942.964119583	5.35	1	90947.464119583	5.349735374999		90953.314068041	90948.313854958	90948.31411958301	90953.31411958301	90948.313861416	90953.311398958	5.0	728.52		3	6	1	0	20	40	700	750	90725.202465916	90725.339954791	90725.56508475	90725.835152166	90726.075132
90942.964119583	5.35	0	90948.214119583	5.349735374999		90953.314068041	90948.313854958	90948.31411958301	90953.31411958301	90948.313861416	90953.311398958	5.0	702.04		3	6	1	0	20	40	700	750	90725.202465916	90725.339954791	90725.56508475	90725.835152166	90726.075132
90953.328755458	5.35	0	90953.328755458	5.348814124998171		90962.178711666	90958.677569583	90958.67875545801	90962.17875545801	90958.677575333	90962.176330583	3.5	709.72		3	4	1	0	21	40	700	750	90725.202465916	90725.339954791	90725.56508475	90725.835152166	90726.075132
90953.328755458	5.35	0	90954.078755458	5.348814124998171		90962.178711666	90958.677569583	90958.67875545801	90962.17875545801	90958.677575333	90962.176330583	3.5	716.28		3	4	1	0	21	40	700	750	90725.202465916	90725.339954791	90725.56508475	90725.835152166	90726.075132
90953.328755458	5.35	0	90954.828755458	5.348814124998171		90962.178711666	90958.677569583	90958.67875545801	90962.17875545801	90958.677575333	90962.176330583	3.5	719.14		3	4	1	0	21	40	700	750	90725.202465916	90725.339954791	90725.56508475	90725.835152166	90726.075132
90953.328755458	5.35	0	90955.578755458	5.348814124998171		90962.178711666	90958.677569583	90958.67875545801	90962.17875545801	90958.677575333	90962.176330583	3.5	714.84		3	4	1	0	21	40	700	750	90725.202465916	90725.339954791	90725.56508475	90725.835152166	90726.075132
90953.328755458	5.35	1	90956.328755458	5.348814124998171		90962.178711666	90958.677569583	90958.67875545801	90962.17875545801	90958.677575333	90962.176330583	3.5	749.82		3	4	1	0	21	40	700	750	90725.202465916	90725.339954791	90725.56508475	90725.835152166	90726.075132
90953.328755458	5.35	0	90957.078755458	5.348814124998171		90962.178711666	90958.677569583	90958.67875545801	90962.17875545801	90958.677575333	90962.176330583	3.5	712.05		3	4	1	0	21	40	700	750	90725.202465916	90725.339954791	90725.56508475	90725.835152166	90726.075132
90953.328755458	5.35	0	90957.828755458	5.348814124998171		90962.178711666	90958.677569583	90958.67875545801	90962.17875545801	90958.677575333	90962.176330583	3.5	715.79		3	4	1	0	21	40	700	750	90725.202465916	90725.339954791	90725.56508475	90725.835152166	90726.075132
90953.328755458	5.35	0	90958.578755458	5.348814124998171		90962.178711666	90958.677569583	90958.67875545801	90962.17875545801	90958.677575333	90962.176330583	3.5	720.94		3	4	1	0	21	40	700	750	90725.202465916	90725.339954791	90725.56508475	90725.835152166	90726.075132
90962.19558658301	5.35	0	90962.19558658301	5.348490624994156		90975.045525458	90967.544077208	90967.54558658302	90975.04558658302	90967.544082	90975.043543041	7.5	711.63		3	4	1	0	22	40	700	750	90725.202465916	90725.339954791	90725.56508475	90725.835152166	90726.075132
90962.19558658301	5.35	0	90962.94558658301	5.348490624994156		90975.045525458	90967.544077208	90967.54558658302	90975.04558658302	90967.544082	90975.043543041	7.5	691.98		3	4	1	0	22	40	700	750	90725.202465916	90725.339954791	90725.56508475	90725.835152166	90726.075132
90962.19558658301	5.35	0	90963.69558658301	5.348490624994156		90975.045525458	90967.544077208	90967.54558658302	90975.04558658302	90967.544082	90975.043543041	7.5	714.73		3	4	1	0	22	40	700	750	90725.202465916	90725.339954791	90725.56508475	90725.835152166	90726.075132
90962.19558658301	5.35	0	90964.44558658301	5.348490624994156		90975.045525458	90967.544077208	90967.54558658302	90975.04558658302	90967.544082	90975.043543041	7.5	700.56		3	4	1	0	22	40	700	750	90725.202465916	90725.339954791	90725.56508475	90725.835152166	90726.075132
90962.19558658301	5.35	1	90965.19558658301	5.348490624994156		90975.045525458	90967.544077208	90967.54558658302	90975.04558658302	90967.544082	90975.043543041	7.5	755.08		3	4	1	0	22	40	700	750	90725.202465916	90725.339954791	90725.56508475	90725.835152166	90726.075132
90962.19558658301	5.35	0	90965.94558658301	5.348490624994156		90975.045525458	90967.544077208	90967.54558658302	90975.04558658302	90967.544082	90975.043543041	7.5	690.16		3	4	1	0	22	40	700	750	90725.202465916	90725.339954791	90725.56508475	90725.835152166	90726.075132
90962.19558658301	5.35	0	90966.69558658301	5.348490624994156		90975.045525458	90967.544077208	90967.54558658302	90975.04558658302	90967.544082	90975.043543041	7.5	680.2		3	4	1	0	22	40	700	750	90725.202465916	90725.339954791	90725.56508475	90725.835152166	90726.075132
90962.19558658301	5.35	0	90967.44558658301	5.348490624994156		90975.045525458	90967.544077208	90967.54558658302	90975.04558658302	90967.544082	90975.043543041	7.5	672.93		3	4	1	0	22	40	700	750	90725.202465916	90725.339954791	90725.56508475	90725.835152166	90726.075132
90975.062712875	5.35	0	90975.062712875	5.347242832998745		90987.4126565	90980.409955708	90980.41271287501	90987.41271287501	90980.409961125	90987.4109225	7.0	688.67		3	5	1	0	23	40	700	750	90725.202465916	90725.339954791	90725.56508475	90725.835152166	90726.075132
90975.062712875	5.35	0	90975.812712875	5.347242832998745		90987.4126565	90980.409955708	90980.41271287501	90987.41271287501	90980.409961125	90987.4109225	7.0	704.65		3	5	1	0	23	40	700	750	90725.202465916	90725.339954791	90725.56508475	90725.835152166	90726.075132
90975.062712875	5.35	0	90976.562712875	5.347242832998745		90987.4126565	90980.409955708	90980.41271287501	90987.41271287501	90980.409961125	90987.4109225	7.0	688.96		3	5	1	0	23	40	700	750	90725.202465916	90725.339954791	90725.56508475	90725.835152166	90726.075132
90975.062712875	5.35	0	90977.312712875	5.347242832998745		90987.4126565	90980.409955708	90980.41271287501	90987.41271287501	90980.409961125	90987.4109225	7.0	693.3		3	5	1	0	23	40	700	750	90725.202465916	90725.339954791	90725.56508475	90725.835152166	90726.075132
90975.062712875	5.35	0	90978.062712875	5.347242832998745		90987.4126565	90980.409955708	90980.41271287501	90987.41271287501	90980.409961125	90987.4109225	7.0	702.11		3	5	1	0	23	40	700	750	90725.202465916	90725.339954791	90725.56508475	90725.835152166	90726.075132
90975.062712875	5.35	1	90978.812712875	5.347242832998745		90987.4126565	90980.409955708	90980.41271287501	90987.41271287501	90980.409961125	90987.4109225	7.0	750.77		3	5	1	0	23	40	700	750	90725.202465916	90725.339954791	90725.56508475	90725.835152166	90726.075132
90975.062712875	5.35	0	90979.562712875	5.347242832998745		90987.4126565	90980.409955708	90980.41271287501	90987.41271287501	90980.409961125	90987.4109225	7.0	674.07		3	5	1	0	23	40	700	750	90725.202465916	90725.339954791	90725.56508475	90725.835152166	90726.075132
90975.062712875	5.35	0	90980.312712875	5.347242832998745		90987.4126565	90980.409955708	90980.41271287501	90987.41271287501	90980.409961125	90987.4109225	7.0	677.12		3	5	1	0	23	40	700	750	90725.202465916	90725.339954791	90725.56508475	90725.835152166	90726.075132
90987.431718916	5.35	0	90987.431718916	5.345930333991419		90997.28167375	90992.77764925	90992.78171891601	90997.28171891601	90992.77765475	90997.275546625	4.5	686.79		3	6	1	0	24	40	700	750	90725.202465916	90725.339954791	90725.56508475	90725.835152166	90726.075132
90987.431718916	5.35	0	90988.181718916	5.345930333991419		90997.28167375	90992.77764925	90992.78171891601	90997.28171891601	90992.77765475	90997.275546625	4.5	689.8		3	6	1	0	24	40	700	750	90725.202465916	90725.339954791	90725.56508475	90725.835152166	90726.075132
90987.431718916	5.35	0	90988.931718916	5.345930333991419		90997.28167375	90992.77764925	90992.78171891601	90997.28171891601	90992.77765475	90997.275546625	4.5	700.81		3	6	1	0	24	40	700	750	90725.202465916	90725.339954791	90725.56508475	90725.835152166	90726.075132
90987.431718916	5.35	0	90989.681718916	5.345930333991419		90997.28167375	90992.77764925	90992.78171891601	90997.28171891601	90992.77765475	90997.275546625	4.5	691.07		3	6	1	0	24	40	700	750	90725.202465916	90725.339954791	90725.56508475	90725.835152166	90726.075132
90987.431718916	5.35	0	90990.431718916	5.345930333991419		90997.28167375	90992.77764925	90992.78171891601	90997.28171891601	90992.77765475	90997.275546625	4.5	682.96		3	6	1	0	24	40	700	750	90725.202465916	90725.339954791	90725.56508475	90725.835152166	90726.075132
90987.431718916	5.35	0	90991.181718916	5.345930333991419		90997.28167375	90992.77764925	90992.78171891601	90997.28171891601	90992.77765475	90997.275546625	4.5	672.41		3	6	1	0	24	40	700	750	90725.202465916	90725.339954791	90725.56508475	90725.835152166	90726.075132
90987.431718916	5.35	1	90991.931718916	5.345930333991419		90997.28167375	90992.77764925	90992.78171891601	90997.28171891601	90992.77765475	90997.275546625	4.5	760.65		3	6	1	0	24	40	700	750	90725.202465916	90725.339954791	90725.56508475	90725.835152166	90726.075132
90987.431718916	5.35	0	90992.681718916	5.345930333991419		90997.28167375	90992.77764925	90992.78171891601	90997.28171891601	90992.77765475	90997.275546625	4.5	658.77		3	6	1	0	24	40	700	750	90725.202465916	90725.339954791	90725.56508475	90725.835152166	90726.075132
90997.29886116601	5.35	0	90997.29886116601	5.345887166986358		91008.648809708	91002.644748333	91002.64886116602	91008.64886116602	91002.6447555	91008.642554083	6.0	642.9		3	6	1	0	25	40	700	750	90725.202465916	90725.339954791	90725.56508475	90725.835152166	90726.075132
90997.29886116601	5.35	0	90998.04886116601	5.345887166986358		91008.648809708	91002.644748333	91002.64886116602	91008.64886116602	91002.6447555	91008.642554083	6.0	648.97		3	6	1	0	25	40	700	750	90725.202465916	90725.339954791	90725.56508475	90725.835152166	90726.075132
90997.29886116601	5.35	0	90998.79886116601	5.345887166986358		91008.648809708	91002.644748333	91002.64886116602	91008.64886116602	91002.6447555	91008.642554083	6.0	667.45		3	6	1	0	25	40	700	750	90725.202465916	90725.339954791	90725.56508475	90725.835152166	90726.075132
90997.29886116601	5.35	0	90999.54886116601	5.345887166986358		91008.648809708	91002.644748333	91002.64886116602	91008.64886116602	91002.6447555	91008.642554083	6.0	646.19		3	6	1	0	25	40	700	750	90725.202465916	90725.339954791	90725.56508475	90725.835152166	90726.075132
90997.29886116601	5.35	0	91000.29886116601	5.345887166986358		91008.648809708	91002.644748333	91002.64886116602	91008.64886116602	91002.6447555	91008.642554083	6.0	659.83		3	6	1	0	25	40	700	750	90725.202465916	90725.339954791	90725.56508475	90725.835152166	90726.075132
90997.29886116601	5.35	0	91001.04886116601	5.345887166986358		91008.648809708	91002.644748333	91002.64886116602	91008.64886116602	91002.6447555	91008.642554083	6.0	648.09		3	6	1	0	25	40	700	750	90725.202465916	90725.339954791	90725.56508475	90725.835152166	90726.075132
90997.29886116601	5.35	1	91001.79886116601	5.345887166986358		91008.648809708	91002.644748333	91002.64886116602	91008.64886116602	91002.6447555	91008.642554083	6.0	748.37		3	6	1	0	25	40	700	750	90725.202465916	90725.339954791	90725.56508475	90725.835152166	90726.075132
90997.29886116601	5.35	0	91002.54886116601	5.345887166986358		91008.648809708	91002.644748333	91002.64886116602	91008.64886116602	91002.6447555	91008.642554083	6.0	668.32		3	6	1	0	25	40	700	750	90725.202465916	90725.339954791	90725.56508475	90725.835152166	90726.075132
91008.66224716601	5.35	0	91008.66224716601	5.349023999995552		91020.512192916	91014.011271166	91014.01224716601	91020.51224716601	91014.011277833	91020.509459541	6.5	661.2		3	5	1	0	26	40	700	750	90725.202465916	90725.339954791	90725.56508475	90725.835152166	90726.075132
91008.66224716601	5.35	0	91009.41224716601	5.349023999995552		91020.512192916	91014.011271166	91014.01224716601	91020.51224716601	91014.011277833	91020.509459541	6.5	658.63		3	5	1	0	26	40	700	750	90725.202465916	90725.339954791	90725.56508475	90725.835152166	90726.075132
91008.66224716601	5.35	0	91010.16224716601	5.349023999995552		91020.512192916	91014.011271166	91014.01224716601	91020.51224716601	91014.011277833	91020.509459541	6.5	640.07		3	5	1	0	26	40	700	750	90725.202465916	90725.339954791	90725.56508475	90725.835152166	90726.075132
91008.66224716601	5.35	0	91010.91224716601	5.349023999995552		91020.512192916	91014.011271166	91014.01224716601	91020.51224716601	91014.011277833	91020.509459541	6.5	627.14		3	5	1	0	26	40	700	750	90725.202465916	90725.339954791	90725.56508475	90725.835152166	90726.075132
91008.66224716601	5.35	0	91011.66224716601	5.349023999995552		91020.512192916	91014.011271166	91014.01224716601	91020.51224716601	91014.011277833	91020.509459541	6.5	615.78		3	5	1	0	26	40	700	750	90725.202465916	90725.339954791	90725.56508475	90725.835152166	90726.075132
91008.66224716601	5.35	1	91012.41224716601	5.349023999995552		91020.512192916	91014.011271166	91014.01224716601	91020.51224716601	91014.011277833	91020.509459541	6.5	744.3		3	5	1	0	26	40	700	750	90725.202465916	90725.339954791	90725.56508475	90725.835152166	90726.075132
91008.66224716601	5.35	0	91013.16224716601	5.349023999995552		91020.512192916	91014.011271166	91014.01224716601	91020.51224716601	91014.011277833	91020.509459541	6.5	644.45		3	5	1	0	26	40	700	750	90725.202465916	90725.339954791	90725.56508475	90725.835152166	90726.075132
91008.66224716601	5.35	0	91013.91224716601	5.349023999995552		91020.512192916	91014.011271166	91014.01224716601	91020.51224716601	91014.011277833	91020.509459541	6.5	601.91		3	5	1	0	26	40	700	750	90725.202465916	90725.339954791	90725.56508475	90725.835152166	90726.075132
91020.54344279101	5.35	0	91020.54344279101	5.348082083990448		91031.893392833	91025.891524875	91025.89344279101	91031.89344279101	91025.8915315	91031.891411416	6.0	615.37		3	3	0	0	27	40	700	750	90725.202465916	90725.339954791	90725.56508475	90725.835152166	90726.075132
91020.54344279101	5.35	0	91021.29344279101	5.348082083990448		91031.893392833	91025.891524875	91025.89344279101	91031.89344279101	91025.8915315	91031.891411416	6.0	613.23		3	3	0	0	27	40	700	750	90725.202465916	90725.339954791	90725.56508475	90725.835152166	90726.075132
91020.54344279101	5.35	0	91022.04344279101	5.348082083990448		91031.893392833	91025.891524875	91025.89344279101	91031.89344279101	91025.8915315	91031.891411416	6.0	665.85		3	3	0	0	27	40	700	750	90725.202465916	90725.339954791	90725.56508475	90725.835152166	90726.075132
91020.54344279101	5.35	1	91022.79344279101	5.348082083990448		91031.893392833	91025.891524875	91025.89344279101	91031.89344279101	91025.8915315	91031.891411416	6.0	735.51		3	3	0	0	27	40	700	750	90725.202465916	90725.339954791	90725.56508475	90725.835152166	90726.075132
91020.54344279101	5.35	0	91023.54344279101	5.348082083990448		91031.893392833	91025.891524875	91025.89344279101	91031.89344279101	91025.8915315	91031.891411416	6.0	600.61		3	3	0	0	27	40	700	750	90725.202465916	90725.339954791	90725.56508475	90725.835152166	90726.075132
91020.54344279101	5.35	0	91024.29344279101	5.348082083990448		91031.893392833	91025.891524875	91025.89344279101	91031.89344279101	91025.8915315	91031.891411416	6.0	633.31		3	3	0	0	27	40	700	750	90725.202465916	90725.339954791	90725.56508475	90725.835152166	90726.075132
91020.54344279101	5.35	0	91025.04344279101	5.348082083990448		91031.893392833	91025.891524875	91025.89344279101	91031.89344279101	91025.8915315	91031.891411416	6.0	637.95		3	3	0	0	27	40	700	750	90725.202465916	90725.339954791	90725.56508475	90725.835152166	90726.075132
91020.54344279101	5.35	0	91025.79344279101	5.348082083990448		91031.893392833	91025.891524875	91025.89344279101	91031.89344279101	91025.8915315	91031.891411416	6.0	652.69		3	3	0	0	27	40	700	750	90725.202465916	90725.339954791	90725.56508475	90725.835152166	90726.075132
91031.91026775	5.35	0	91031.91026775	5.346852082991973		91043.260217291	91037.257119833	91037.26026775001	91043.26026775001	91037.257127958	91043.259161125	6.0	644.58		3	2	0	0	28	40	700	750	90725.202465916	90725.339954791	90725.56508475	90725.835152166	90726.075132
91031.91026775	5.35	0	91032.66026775	5.346852082991973		91043.260217291	91037.257119833	91037.26026775001	91043.26026775001	91037.257127958	91043.259161125	6.0	625.02		3	2	0	0	28	40	700	750	90725.202465916	90725.339954791	90725.56508475	90725.835152166	90726.075132
91031.91026775	5.35	1	91033.41026775	5.346852082991973		91043.260217291	91037.257119833	91037.26026775001	91043.26026775001	91037.257127958	91043.259161125	6.0	721.85		3	2	0	0	28	40	700	750	90725.202465916	90725.339954791	90725.56508475	90725.835152166	90726.075132
91031.91026775	5.35	0	91034.16026775	5.346852082991973		91043.260217291	91037.257119833	91037.26026775001	91043.26026775001	91037.257127958	91043.259161125	6.0	629.9		3	2	0	0	28	40	700	750	90725.202465916	90725.339954791	90725.56508475	90725.835152166	90726.075132
91031.91026775	5.35	0	91034.91026775	5.346852082991973		91043.260217291	91037.257119833	91037.26026775001	91043.26026775001	91037.257127958	91043.259161125	6.0	635.84		3	2	0	0	28	40	700	750	90725.202465916	90725.339954791	90725.56508475	90725.835152166	90726.075132
91031.91026775	5.35	0	91035.66026775	5.346852082991973		91043.260217291	91037.257119833	91037.26026775001	91043.26026775001	91037.257127958	91043.259161125	6.0	664.91		3	2	0	0	28	40	700	750	90725.202465916	90725.339954791	90725.56508475	90725.835152166	90726.075132
91031.91026775	5.35	0	91036.41026775	5.346852082991973		91043.260217291	91037.257119833	91037.26026775001	91043.26026775001	91037.257127958	91043.259161125	6.0	646.43		3	2	0	0	28	40	700	750	90725.202465916	90725.339954791	90725.56508475	90725.835152166	90726.075132
91031.91026775	5.35	0	91037.16026775	5.346852082991973		91043.260217291	91037.257119833	91037.26026775001	91043.26026775001	91037.257127958	91043.259161125	6.0	653.64		3	2	0	0	28	40	700	750	90725.202465916	90725.339954791	90725.56508475	90725.835152166	90726.075132
91043.27834220801	5.35	0	91043.27834220801	5.349801749995095		91054.628291416	91048.628143958	91048.62834220802	91054.62834220802	91048.628150208	91054.625539375	6.0	635.66		3	3	0	0	29	40	700	750	90725.202465916	90725.339954791	90725.56508475	90725.835152166	90726.075132
91043.27834220801	5.35	0	91044.02834220801	5.349801749995095		91054.628291416	91048.628143958	91048.62834220802	91054.62834220802	91048.628150208	91054.625539375	6.0	654.87		3	3	0	0	29	40	700	750	90725.202465916	90725.339954791	90725.56508475	90725.835152166	90726.075132
91043.27834220801	5.35	0	91044.77834220801	5.349801749995095		91054.628291416	91048.628143958	91048.62834220802	91054.62834220802	91048.628150208	91054.625539375	6.0	652.51		3	3	0	0	29	40	700	750	90725.202465916	90725.339954791	90725.56508475	90725.835152166	90726.075132
91043.27834220801	5.35	1	91045.52834220801	5.349801749995095		91054.628291416	91048.628143958	91048.62834220802	91054.62834220802	91048.628150208	91054.625539375	6.0	758.21		3	3	0	0	29	40	700	750	90725.202465916	90725.339954791	90725.56508475	90725.835152166	90726.075132
91043.27834220801	5.35	0	91046.27834220801	5.349801749995095		91054.628291416	91048.628143958	91048.62834220802	91054.62834220802	91048.628150208	91054.625539375	6.0	650.67		3	3	0	0	29	40	700	750	90725.202465916	90725.339954791	90725.56508475	90725.835152166	90726.075132
91043.27834220801	5.35	0	91047.02834220801	5.349801749995095		91054.628291416	91048.628143958	91048.62834220802	91054.62834220802	91048.628150208	91054.625539375	6.0	677.27		3	3	0	0	29	40	700	750	90725.202465916	90725.339954791	90725.56508475	90725.835152166	90726.075132
91043.27834220801	5.35	0	91047.77834220801	5.349801749995095		91054.628291416	91048.628143958	91048.62834220802	91054.62834220802	91048.628150208	91054.625539375	6.0	695.88		3	3	0	0	29	40	700	750	90725.202465916	90725.339954791	90725.56508475	90725.835152166	90726.075132
91043.27834220801	5.35	0	91048.52834220801	5.349801749995095		91054.628291416	91048.628143958	91048.62834220802	91054.62834220802	91048.628150208	91054.625539375	6.0	671.07		3	3	0	0	29	40	700	750	90725.202465916	90725.339954791	90725.56508475	90725.835152166	90726.075132
91054.645478833	5.35	0	91054.645478833	5.348571583002922		91063.995435916	91059.994050416	91059.995478833	91063.995478833	91059.994055875	91063.992674958	4.0	665.17		3	4	0	0	30	40	700	750	90725.202465916	90725.339954791	90725.56508475	90725.835152166	90726.075132
91054.645478833	5.35	0	91055.395478833	5.348571583002922		91063.995435916	91059.994050416	91059.995478833	91063.995478833	91059.994055875	91063.992674958	4.0	664.89		3	4	0	0	30	40	700	750	90725.202465916	90725.339954791	90725.56508475	90725.835152166	90726.075132
91054.645478833	5.35	0	91056.145478833	5.348571583002922		91063.995435916	91059.994050416	91059.995478833	91063.995478833	91059.994055875	91063.992674958	4.0	640.51		3	4	0	0	30	40	700	750	90725.202465916	90725.339954791	90725.56508475	90725.835152166	90726.075132
91054.645478833	5.35	0	91056.895478833	5.348571583002922		91063.995435916	91059.994050416	91059.995478833	91063.995478833	91059.994055875	91063.992674958	4.0	663.73		3	4	0	0	30	40	700	750	90725.202465916	90725.339954791	90725.56508475	90725.835152166	90726.075132
91054.645478833	5.35	1	91057.645478833	5.348571583002922		91063.995435916	91059.994050416	91059.995478833	91063.995478833	91059.994055875	91063.992674958	4.0	746.57		3	4	0	0	30	40	700	750	90725.202465916	90725.339954791	90725.56508475	90725.835152166	90726.075132
91054.645478833	5.35	0	91058.395478833	5.348571583002922		91063.995435916	91059.994050416	91059.995478833	91063.995478833	91059.994055875	91063.992674958	4.0	677.48		3	4	0	0	30	40	700	750	90725.202465916	90725.339954791	90725.56508475	90725.835152166	90726.075132
91054.645478833	5.35	0	91059.145478833	5.348571583002922		91063.995435916	91059.994050416	91059.995478833	91063.995478833	91059.994055875	91063.992674958	4.0	659.27		3	4	0	0	30	40	700	750	90725.202465916	90725.339954791	90725.56508475	90725.835152166	90726.075132
91054.645478833	5.35	0	91059.895478833	5.348571583002922		91063.995435916	91059.994050416	91059.995478833	91063.995478833	91059.994055875	91063.992674958	4.0	659.39		3	4	0	0	30	40	700	750	90725.202465916	90725.339954791	90725.56508475	90725.835152166	90726.075132
91064.012310833	5.35	0	91064.012310833	5.347276291999151		91074.362265375	91069.359587125	91069.362310833	91074.362310833	91069.359592625	91074.358840125	5.0	689.51		4	0	2	0	31	40	700	750	90725.202465916	90725.339954791	90725.56508475	90725.835152166	90726.075132
91064.012310833	5.35	0	91064.762310833	5.347276291999151		91074.362265375	91069.359587125	91069.362310833	91074.362310833	91069.359592625	91074.358840125	5.0	661.13		4	0	2	0	31	40	700	750	90725.202465916	90725.339954791	90725.56508475	90725.835152166	90726.075132
91064.012310833	5.35	0	91065.512310833	5.347276291999151		91074.362265375	91069.359587125	91069.362310833	91074.362310833	91069.359592625	91074.358840125	5.0	656.64		4	0	2	0	31	40	700	750	90725.202465916	90725.339954791	90725.56508475	90725.835152166	90726.075132
91064.012310833	5.35	0	91066.262310833	5.347276291999151		91074.362265375	91069.359587125	91069.362310833	91074.362310833	91069.359592625	91074.358840125	5.0	633.09		4	0	2	0	31	40	700	750	90725.202465916	90725.339954791	90725.56508475	90725.835152166	90726.075132
91064.012310833	5.35	0	91067.012310833	5.347276291999151		91074.362265375	91069.359587125	91069.362310833	91074.362310833	91069.359592625	91074.358840125	5.0	625.76		4	0	2	0	31	40	700	750	90725.202465916	90725.339954791	90725.56508475	90725.835152166	90726.075132
91064.012310833	5.35	0	91067.762310833	5.347276291999151		91074.362265375	91069.359587125	91069.362310833	91074.362310833	91069.359592625	91074.358840125	5.0	622.32		4	0	2	0	31	40	700	750	90725.202465916	90725.339954791	90725.56508475	90725.835152166	90726.075132
91064.012310833	5.35	0	91068.512310833	5.347276291999151		91074.362265375	91069.359587125	91069.362310833	91074.362310833	91069.359592625	91074.358840125	5.0	643.88		4	0	2	0	31	40	700	750	90725.202465916	90725.339954791	90725.56508475	90725.835152166	90726.075132
91064.012310833	5.35	0	91069.262310833	5.347276291999151		91074.362265375	91069.359587125	91069.362310833	91074.362310833	91069.359592625	91074.358840125	5.0	662.25		4	0	2	0	31	40	700	750	90725.202465916	90725.339954791	90725.56508475	90725.835152166	90726.075132
91074.378202791	5.35	0	91074.378202791	5.349090083996998		91085.72815175	91079.727292875	91079.72820279101	91085.72820279101	91079.727303208	91085.724704833	6.0	684.77		3	5	1	0	32	40	700	750	90725.202465916	90725.339954791	90725.56508475	90725.835152166	90726.075132
91074.378202791	5.35	0	91075.128202791	5.349090083996998		91085.72815175	91079.727292875	91079.72820279101	91085.72820279101	91079.727303208	91085.724704833	6.0	657.96		3	5	1	0	32	40	700	750	90725.202465916	90725.339954791	90725.56508475	90725.835152166	90726.075132
91074.378202791	5.35	0	91075.878202791	5.349090083996998		91085.72815175	91079.727292875	91079.72820279101	91085.72820279101	91079.727303208	91085.724704833	6.0	696.77		3	5	1	0	32	40	700	750	90725.202465916	90725.339954791	90725.56508475	90725.835152166	90726.075132
91074.378202791	5.35	0	91076.628202791	5.349090083996998		91085.72815175	91079.727292875	91079.72820279101	91085.72820279101	91079.727303208	91085.724704833	6.0	665.09		3	5	1	0	32	40	700	750	90725.202465916	90725.339954791	90725.56508475	90725.835152166	90726.075132
91074.378202791	5.35	0	91077.378202791	5.349090083996998		91085.72815175	91079.727292875	91079.72820279101	91085.72820279101	91079.727303208	91085.724704833	6.0	661.91		3	5	1	0	32	40	700	750	90725.202465916	90725.339954791	90725.56508475	90725.835152166	90726.075132
91074.378202791	5.35	1	91078.128202791	5.349090083996998		91085.72815175	91079.727292875	91079.72820279101	91085.72820279101	91079.727303208	91085.724704833	6.0	771.42		3	5	1	0	32	40	700	750	90725.202465916	90725.339954791	90725.56508475	90725.835152166	90726.075132
91074.378202791	5.35	0	91078.878202791	5.349090083996998		91085.72815175	91079.727292875	91079.72820279101	91085.72820279101	91079.727303208	91085.724704833	6.0	672.49		3	5	1	0	32	40	700	750	90725.202465916	90725.339954791	90725.56508475	90725.835152166	90726.075132
91074.378202791	5.35	0	91079.628202791	5.349090083996998		91085.72815175	91079.727292875	91079.72820279101	91085.72820279101	91079.727303208	91085.724704833	6.0	655.88		3	5	1	0	32	40	700	750	90725.202465916	90725.339954791	90725.56508475	90725.835152166	90726.075132
91085.743464208	5.35	0	91085.743464208	5.34761924999475		91094.093426666	91091.091083458	91091.09346420801	91094.09346420801	91091.091089958	91094.093141583	3.0	667.83		3	4	1	0	33	40	700	750	90725.202465916	90725.339954791	90725.56508475	90725.835152166	90726.075132
91085.743464208	5.35	0	91086.493464208	5.34761924999475		91094.093426666	91091.091083458	91091.09346420801	91094.09346420801	91091.091089958	91094.093141583	3.0	669.11		3	4	1	0	33	40	700	750	90725.202465916	90725.339954791	90725.56508475	90725.835152166	90726.075132
91085.743464208	5.35	0	91087.243464208	5.34761924999475		91094.093426666	91091.091083458	91091.09346420801	91094.09346420801	91091.091089958	91094.093141583	3.0	687.2		3	4	1	0	33	40	700	750	90725.202465916	90725.339954791	90725.56508475	90725.835152166	90726.075132
91085.743464208	5.35	0	91087.993464208	5.34761924999475		91094.093426666	91091.091083458	91091.09346420801	91094.09346420801	91091.091089958	91094.093141583	3.0	689.62		3	4	1	0	33	40	700	750	90725.202465916	90725.339954791	90725.56508475	90725.835152166	90726.075132
91085.743464208	5.35	1	91088.743464208	5.34761924999475		91094.093426666	91091.091083458	91091.09346420801	91094.09346420801	91091.091089958	91094.093141583	3.0	762.87		3	4	1	0	33	40	700	750	90725.202465916	90725.339954791	90725.56508475	90725.835152166	90726.075132
91085.743464208	5.35	0	91089.493464208	5.34761924999475		91094.093426666	91091.091083458	91091.09346420801	91094.09346420801	91091.091089958	91094.093141583	3.0	702.61		3	4	1	0	33	40	700	750	90725.202465916	90725.339954791	90725.56508475	90725.835152166	90726.075132
91085.743464208	5.35	0	91090.243464208	5.34761924999475		91094.093426666	91091.091083458	91091.09346420801	91094.09346420801	91091.091089958	91094.093141583	3.0	688.19		3	4	1	0	33	40	700	750	90725.202465916	90725.339954791	90725.56508475	90725.835152166	90726.075132
91085.743464208	5.35	0	91090.993464208	5.34761924999475		91094.093426666	91091.091083458	91091.09346420801	91094.09346420801	91091.091089958	91094.093141583	3.0	681.34		3	4	1	0	33	40	700	750	90725.202465916	90725.339954791	90725.56508475	90725.835152166	90726.075132
91094.112176583	5.35	0	91094.112176583	5.348213999997824		91104.462131166	91099.460390583	91099.46217658301	91104.46217658301	91099.460396208	91104.460118583	5.0	690.67		3	4	1	0	34	40	700	750	90725.202465916	90725.339954791	90725.56508475	90725.835152166	90726.075132
91094.112176583	5.35	0	91094.862176583	5.348213999997824		91104.462131166	91099.460390583	91099.46217658301	91104.46217658301	91099.460396208	91104.460118583	5.0	694.5		3	4	1	0	34	40	700	750	90725.202465916	90725.339954791	90725.56508475	90725.835152166	90726.075132
91094.112176583	5.35	0	91095.612176583	5.348213999997824		91104.462131166	91099.460390583	91099.46217658301	91104.46217658301	91099.460396208	91104.460118583	5.0	708.58		3	4	1	0	34	40	700	750	90725.202465916	90725.339954791	90725.56508475	90725.835152166	90726.075132
91094.112176583	5.35	0	91096.362176583	5.348213999997824		91104.462131166	91099.460390583	91099.46217658301	91104.46217658301	91099.460396208	91104.460118583	5.0	718.15		3	4	1	0	34	40	700	750	90725.202465916	90725.339954791	90725.56508475	90725.835152166	90726.075132
91094.112176583	5.35	1	91097.112176583	5.348213999997824		91104.462131166	91099.460390583	91099.46217658301	91104.46217658301	91099.460396208	91104.460118583	5.0	762.26		3	4	1	0	34	40	700	750	90725.202465916	90725.339954791	90725.56508475	90725.835152166	90726.075132
91094.112176583	5.35	0	91097.862176583	5.348213999997824		91104.462131166	91099.460390583	91099.46217658301	91104.46217658301	91099.460396208	91104.460118583	5.0	700.97		3	4	1	0	34	40	700	750	90725.202465916	90725.339954791	90725.56508475	90725.835152166	90726.075132
91094.112176583	5.35	0	91098.612176583	5.348213999997824		91104.462131166	91099.460390583	91099.46217658301	91104.46217658301	91099.460396208	91104.460118583	5.0	692.44		3	4	1	0	34	40	700	750	90725.202465916	90725.339954791	90725.56508475	90725.835152166	90726.075132
91094.112176583	5.35	0	91099.362176583	5.348213999997824		91104.462131166	91099.460390583	91099.46217658301	91104.46217658301	91099.460396208	91104.460118583	5.0	696.93		3	4	1	0	34	40	700	750	90725.202465916	90725.339954791	90725.56508475	90725.835152166	90726.075132
91104.479943583	5.35	0	91104.479943583	5.346910457999911		91112.829906458	91109.826854041	91109.82994358301	91112.82994358301	91109.826859583	91112.829093833	3.0	685.62		3	6	1	0	35	40	700	750	90725.202465916	90725.339954791	90725.56508475	90725.835152166	90726.075132
91104.479943583	5.35	0	91105.229943583	5.346910457999911		91112.829906458	91109.826854041	91109.82994358301	91112.82994358301	91109.826859583	91112.829093833	3.0	695.68		3	6	1	0	35	40	700	750	90725.202465916	90725.339954791	90725.56508475	90725.835152166	90726.075132
91104.479943583	5.35	0	91105.979943583	5.346910457999911		91112.829906458	91109.826854041	91109.82994358301	91112.82994358301	91109.826859583	91112.829093833	3.0	710.1		3	6	1	0	35	40	700	750	90725.202465916	90725.339954791	90725.56508475	90725.835152166	90726.075132
91104.479943583	5.35	0	91106.729943583	5.346910457999911		91112.829906458	91109.826854041	91109.82994358301	91112.82994358301	91109.826859583	91112.829093833	3.0	688.57		3	6	1	0	35	40	700	750	90725.202465916	90725.339954791	90725.56508475	90725.835152166	90726.075132
91104.479943583	5.35	0	91107.479943583	5.346910457999911		91112.829906458	91109.826854041	91109.82994358301	91112.82994358301	91109.826859583	91112.829093833	3.0	676.41		3	6	1	0	35	40	700	750	90725.202465916	90725.339954791	90725.56508475	90725.835152166	90726.075132
91104.479943583	5.35	0	91108.229943583	5.346910457999911		91112.829906458	91109.826854041	91109.82994358301	91112.82994358301	91109.826859583	91112.829093833	3.0	692.98		3	6	1	0	35	40	700	750	90725.202465916	90725.339954791	90725.56508475	90725.835152166	90726.075132
91104.479943583	5.35	1	91108.979943583	5.346910457999911		91112.829906458	91109.826854041	91109.82994358301	91112.82994358301	91109.826859583	91112.829093833	3.0	781.77		3	6	1	0	35	40	700	750	90725.202465916	90725.339954791	90725.56508475	90725.835152166	90726.075132
91104.479943583	5.35	0	91109.729943583	5.346910457999911		91112.829906458	91109.826854041	91109.82994358301	91112.82994358301	91109.826859583	91112.829093833	3.0	687.26		3	6	1	0	35	40	700	750	90725.202465916	90725.339954791	90725.56508475	90725.835152166	90726.075132
91112.84771887501	5.35	0	91112.84771887501	5.345557249995181		91125.697661666	91118.193276125	91118.19771887502	91125.69771887502	91118.193282333	91125.691941416	7.5	698.72		3	5	1	0	36	40	700	750	90725.202465916	90725.339954791	90725.56508475	90725.835152166	90726.075132
91112.84771887501	5.35	0	91113.59771887501	5.345557249995181		91125.697661666	91118.193276125	91118.19771887502	91125.69771887502	91118.193282333	91125.691941416	7.5	734.2		3	5	1	0	36	40	700	750	90725.202465916	90725.339954791	90725.56508475	90725.835152166	90726.075132
91112.84771887501	5.35	0	91114.34771887501	5.345557249995181		91125.697661666	91118.193276125	91118.19771887502	91125.69771887502	91118.193282333	91125.691941416	7.5	701.68		3	5	1	0	36	40	700	750	90725.202465916	90725.339954791	90725.56508475	90725.835152166	90726.075132
91112.84771887501	5.35	0	91115.09771887501	5.345557249995181		91125.697661666	91118.193276125	91118.19771887502	91125.69771887502	91118.193282333	91125.691941416	7.5	688.12		3	5	1	0	36	40	700	750	90725.202465916	90725.339954791	90725.56508475	90725.835152166	90726.075132
91112.84771887501	5.35	0	91115.84771887501	5.345557249995181		91125.697661666	91118.193276125	91118.19771887502	91125.69771887502	91118.193282333	91125.691941416	7.5	700.73		3	5	1	0	36	40	700	750	90725.202465916	90725.339954791	90725.56508475	90725.835152166	90726.075132
91112.84771887501	5.35	1	91116.59771887501	5.345557249995181		91125.697661666	91118.193276125	91118.19771887502	91125.69771887502	91118.193282333	91125.691941416	7.5	785.48		3	5	1	0	36	40	700	750	90725.202465916	90725.339954791	90725.56508475	90725.835152166	90726.075132
91112.84771887501	5.35	0	91117.34771887501	5.345557249995181		91125.697661666	91118.193276125	91118.19771887502	91125.69771887502	91118.193282333	91125.691941416	7.5	688.89		3	5	1	0	36	40	700	750	90725.202465916	90725.339954791	90725.56508475	90725.835152166	90726.075132
91112.84771887501	5.35	0	91118.09771887501	5.345557249995181		91125.697661666	91118.193276125	91118.19771887502	91125.69771887502	91118.193282333	91125.691941416	7.5	680.48		3	5	1	0	36	40	700	750	90725.202465916	90725.339954791	90725.56508475	90725.835152166	90726.075132
91125.711411583	5.35	0	91125.711411583	5.348509082992678		91134.06137325	91131.059920666	91131.06141158301	91134.06141158301	91131.059925041	91134.058291	3.0	683.46		3	5	1	0	37	40	700	750	90725.202465916	90725.339954791	90725.56508475	90725.835152166	90726.075132
91125.711411583	5.35	0	91126.461411583	5.348509082992678		91134.06137325	91131.059920666	91131.06141158301	91134.06141158301	91131.059925041	91134.058291	3.0	691.45		3	5	1	0	37	40	700	750	90725.202465916	90725.339954791	90725.56508475	90725.835152166	90726.075132
91125.711411583	5.35	0	91127.211411583	5.348509082992678		91134.06137325	91131.059920666	91131.06141158301	91134.06141158301	91131.059925041	91134.058291	3.0	686.76		3	5	1	0	37	40	700	750	90725.202465916	90725.339954791	90725.56508475	90725.835152166	90726.075132
91125.711411583	5.35	0	91127.961411583	5.348509082992678		91134.06137325	91131.059920666	91131.06141158301	91134.06141158301	91131.059925041	91134.058291	3.0	680.88		3	5	1	0	37	40	700	750	90725.202465916	90725.339954791	90725.56508475	90725.835152166	90726.075132
91125.711411583	5.35	0	91128.711411583	5.348509082992678		91134.06137325	91131.059920666	91131.06141158301	91134.06141158301	91131.059925041	91134.058291	3.0	695.13		3	5	1	0	37	40	700	750	90725.202465916	90725.339954791	90725.56508475	90725.835152166	90726.075132
91125.711411583	5.35	1	91129.461411583	5.348509082992678		91134.06137325	91131.059920666	91131.06141158301	91134.06141158301	91131.059925041	91134.058291	3.0	768.56		3	5	1	0	37	40	700	750	90725.202465916	90725.339954791	90725.56508475	90725.835152166	90726.075132
91125.711411583	5.35	0	91130.211411583	5.348509082992678		91134.06137325	91131.059920666	91131.06141158301	91134.06141158301	91131.059925041	91134.058291	3.0	678.8		3	5	1	0	37	40	700	750	90725.202465916	90725.339954791	90725.56508475	90725.835152166	90726.075132
91125.711411583	5.35	0	91130.961411583	5.348509082992678		91134.06137325	91131.059920666	91131.06141158301	91134.06141158301	91131.059925041	91134.058291	3.0	716.77		3	5	1	0	37	40	700	750	90725.202465916	90725.339954791	90725.56508475	90725.835152166	90726.075132
91134.077310666	5.35	0	91134.077310666	5.347052791999886		91146.927251333	91139.424363458	91139.42731066601	91146.92731066601	91139.424370166	91146.926799083	7.5	682.93		4	0	2	0	38	40	700	750	90725.202465916	90725.339954791	90725.56508475	90725.835152166	90726.075132
91134.077310666	5.35	0	91134.827310666	5.347052791999886		91146.927251333	91139.424363458	91139.42731066601	91146.92731066601	91139.424370166	91146.926799083	7.5	698.62		4	0	2	0	38	40	700	750	90725.202465916	90725.339954791	90725.56508475	90725.835152166	90726.075132
91134.077310666	5.35	0	91135.577310666	5.347052791999886		91146.927251333	91139.424363458	91139.42731066601	91146.92731066601	91139.424370166	91146.926799083	7.5	695.63		4	0	2	0	38	40	700	750	90725.202465916	90725.339954791	90725.56508475	90725.835152166	90726.075132
91134.077310666	5.35	0	91136.327310666	5.347052791999886		91146.927251333	91139.424363458	91139.42731066601	91146.92731066601	91139.424370166	91146.926799083	7.5	700.58		4	0	2	0	38	40	700	750	90725.202465916	90725.339954791	90725.56508475	90725.835152166	90726.075132
91134.077310666	5.35	0	91137.077310666	5.347052791999886		91146.927251333	91139.424363458	91139.42731066601	91146.92731066601	91139.424370166	91146.926799083	7.5	732.13		4	0	2	0	38	40	700	750	90725.202465916	90725.339954791	90725.56508475	90725.835152166	90726.075132
91134.077310666	5.35	0	91137.827310666	5.347052791999886		91146.927251333	91139.424363458	91139.42731066601	91146.92731066601	91139.424370166	91146.926799083	7.5	705.3		4	0	2	0	38	40	700	750	90725.202465916	90725.339954791	90725.56508475	90725.835152166	90726.075132
91134.077310666	5.35	0	91138.577310666	5.347052791999886		91146.927251333	91139.424363458	91139.42731066601	91146.92731066601	91139.424370166	91146.926799083	7.5	695.62		4	0	2	0	38	40	700	750	90725.202465916	90725.339954791	90725.56508475	90725.835152166	90726.075132
91134.077310666	5.35	0	91139.327310666	5.347052791999886		91146.927251333	91139.424363458	91139.42731066601	91146.92731066601	91139.424370166	91146.926799083	7.5	711.53		4	0	2	0	38	40	700	750	90725.202465916	90725.339954791	90725.56508475	90725.835152166	90726.075132
91146.94443875001	5.35	0	91146.94443875001	5.346487749993685		91158.794384666	91152.2909265	91152.29443875002	91158.79443875002	91152.290935166	91158.7942545	6.5	711.63		3	3	0	0	39	40	700	750	90725.202465916	90725.339954791	90725.56508475	90725.835152166	90726.075132
91146.94443875001	5.35	0	91147.69443875001	5.346487749993685		91158.794384666	91152.2909265	91152.29443875002	91158.79443875002	91152.290935166	91158.7942545	6.5	692.53		3	3	0	0	39	40	700	750	90725.202465916	90725.339954791	90725.56508475	90725.835152166	90726.075132
91146.94443875001	5.35	0	91148.44443875001	5.346487749993685		91158.794384666	91152.2909265	91152.29443875002	91158.79443875002	91152.290935166	91158.7942545	6.5	727.0		3	3	0	0	39	40	700	750	90725.202465916	90725.339954791	90725.56508475	90725.835152166	90726.075132
91146.94443875001	5.35	1	91149.19443875001	5.346487749993685		91158.794384666	91152.2909265	91152.29443875002	91158.79443875002	91152.290935166	91158.7942545	6.5	762.18		3	3	0	0	39	40	700	750	90725.202465916	90725.339954791	90725.56508475	90725.835152166	90726.075132
91146.94443875001	5.35	0	91149.94443875001	5.346487749993685		91158.794384666	91152.2909265	91152.29443875002	91158.79443875002	91152.290935166	91158.7942545	6.5	713.1		3	3	0	0	39	40	700	750	90725.202465916	90725.339954791	90725.56508475	90725.835152166	90726.075132
91146.94443875001	5.35	0	91150.69443875001	5.346487749993685		91158.794384666	91152.2909265	91152.29443875002	91158.79443875002	91152.290935166	91158.7942545	6.5	702.61		3	3	0	0	39	40	700	750	90725.202465916	90725.339954791	90725.56508475	90725.835152166	90726.075132
91146.94443875001	5.35	0	91151.44443875001	5.346487749993685		91158.794384666	91152.2909265	91152.29443875002	91158.79443875002	91152.290935166	91158.7942545	6.5	674.98		3	3	0	0	39	40	700	750	90725.202465916	90725.339954791	90725.56508475	90725.835152166	90726.075132
91146.94443875001	5.35	0	91152.19443875001	5.346487749993685		91158.794384666	91152.2909265	91152.29443875002	91158.79443875002	91152.290935166	91158.7942545	6.5	700.58		3	3	0	0	39	40	700	750	90725.202465916	90725.339954791	90725.56508475	90725.835152166	90726.075132
91158.814072041	5.35	0	91158.814072041	5.346674750006059		91167.164033916	91164.160746791	91164.164072041	91167.164072041	91164.160752583	91167.16050275	3.0	705.27		3	6	1	0	40	40	700	750	90725.202465916	90725.339954791	90725.56508475	90725.835152166	90726.075132
91158.814072041	5.35	0	91159.564072041	5.346674750006059		91167.164033916	91164.160746791	91164.164072041	91167.164072041	91164.160752583	91167.16050275	3.0	690.2		3	6	1	0	40	40	700	750	90725.202465916	90725.339954791	90725.56508475	90725.835152166	90726.075132
91158.814072041	5.35	0	91160.314072041	5.346674750006059		91167.164033916	91164.160746791	91164.164072041	91167.164072041	91164.160752583	91167.16050275	3.0	715.86		3	6	1	0	40	40	700	750	90725.202465916	90725.339954791	90725.56508475	90725.835152166	90726.075132
91158.814072041	5.35	0	91161.064072041	5.346674750006059		91167.164033916	91164.160746791	91164.164072041	91167.164072041	91164.160752583	91167.16050275	3.0	714.92		3	6	1	0	40	40	700	750	90725.202465916	90725.339954791	90725.56508475	90725.835152166	90726.075132
91158.814072041	5.35	0	91161.814072041	5.346674750006059		91167.164033916	91164.160746791	91164.164072041	91167.164072041	91164.160752583	91167.16050275	3.0	698.23		3	6	1	0	40	40	700	750	90725.202465916	90725.339954791	90725.56508475	90725.835152166	90726.075132
91158.814072041	5.35	0	91162.564072041	5.346674750006059		91167.164033916	91164.160746791	91164.164072041	91167.164072041	91164.160752583	91167.16050275	3.0	719.43		3	6	1	0	40	40	700	750	90725.202465916	90725.339954791	90725.56508475	90725.835152166	90726.075132
91158.814072041	5.35	1	91163.314072041	5.346674750006059		91167.164033916	91164.160746791	91164.164072041	91167.164072041	91164.160752583	91167.16050275	3.0	774.64		3	6	1	0	40	40	700	750	90725.202465916	90725.339954791	90725.56508475	90725.835152166	90726.075132
91158.814072041	5.35	0	91164.064072041	5.346674750006059		91167.164033916	91164.160746791	91164.164072041	91167.164072041	91164.160752583	91167.16050275	3.0	728.11		3	6	1	0	40	40	700	750	90725.202465916	90725.339954791	90725.56508475	90725.835152166	90726.075132
91167.17997137501	5.35	0	91167.17997137501	5.347296457985067		91178.029921166	91172.527267833	91172.52997137501	91178.02997137501	91172.52727325	91178.024555291	5.5	707.67		3	6	1	0	41	40	700	750	90725.202465916	90725.339954791	90725.56508475	90725.835152166	90726.075132
91167.17997137501	5.35	0	91167.92997137501	5.347296457985067		91178.029921166	91172.527267833	91172.52997137501	91178.02997137501	91172.52727325	91178.024555291	5.5	739.6		3	6	1	0	41	40	700	750	90725.202465916	90725.339954791	90725.56508475	90725.835152166	90726.075132
91167.17997137501	5.35	0	91168.67997137501	5.347296457985067		91178.029921166	91172.527267833	91172.52997137501	91178.02997137501	91172.52727325	91178.024555291	5.5	727.32		3	6	1	0	41	40	700	750	90725.202465916	90725.339954791	90725.56508475	90725.835152166	90726.075132
91167.17997137501	5.35	0	91169.42997137501	5.347296457985067		91178.029921166	91172.527267833	91172.52997137501	91178.02997137501	91172.52727325	91178.024555291	5.5	721.61		3	6	1	0	41	40	700	750	90725.202465916	90725.339954791	90725.56508475	90725.835152166	90726.075132
91167.17997137501	5.35	0	91170.17997137501	5.347296457985067		91178.029921166	91172.527267833	91172.52997137501	91178.02997137501	91172.52727325	91178.024555291	5.5	717.66		3	6	1	0	41	40	700	750	90725.202465916	90725.339954791	90725.56508475	90725.835152166	90726.075132
91167.17997137501	5.35	0	91170.92997137501	5.347296457985067		91178.029921166	91172.527267833	91172.52997137501	91178.02997137501	91172.52727325	91178.024555291	5.5	734.88		3	6	1	0	41	40	700	750	90725.202465916	90725.339954791	90725.56508475	90725.835152166	90726.075132
91167.17997137501	5.35	1	91171.67997137501	5.347296457985067		91178.029921166	91172.527267833	91172.52997137501	91178.02997137501	91172.52727325	91178.024555291	5.5	768.88		3	6	1	0	41	40	700	750	90725.202465916	90725.339954791	90725.56508475	90725.835152166	90726.075132
91167.17997137501	5.35	0	91172.42997137501	5.347296457985067		91178.029921166	91172.527267833	91172.52997137501	91178.02997137501	91172.52727325	91178.024555291	5.5	736.08		3	6	1	0	41	40	700	750	90725.202465916	90725.339954791	90725.56508475	90725.835152166	90726.075132
91178.048671041	5.35	0	91178.048671041	5.344710291989031		91186.398632333	91183.393381333	91183.39867104101	91186.39867104101	91183.393386791	91186.391564083	3.0	712.78		4	0	2	0	42	40	700	750	90725.202465916	90725.339954791	90725.56508475	90725.835152166	90726.075132
91178.048671041	5.35	0	91178.798671041	5.344710291989031		91186.398632333	91183.393381333	91183.39867104101	91186.39867104101	91183.393386791	91186.391564083	3.0	741.95		4	0	2	0	42	40	700	750	90725.202465916	90725.339954791	90725.56508475	90725.835152166	90726.075132
91178.048671041	5.35	0	91179.548671041	5.344710291989031		91186.398632333	91183.393381333	91183.39867104101	91186.39867104101	91183.393386791	91186.391564083	3.0	731.35		4	0	2	0	42	40	700	750	90725.202465916	90725.339954791	90725.56508475	90725.835152166	90726.075132
91178.048671041	5.35	0	91180.298671041	5.344710291989031		91186.398632333	91183.393381333	91183.39867104101	91186.39867104101	91183.393386791	91186.391564083	3.0	712.49		4	0	2	0	42	40	700	750	90725.202465916	90725.339954791	90725.56508475	90725.835152166	90726.075132
91178.048671041	5.35	0	91181.048671041	5.344710291989031		91186.398632333	91183.393381333	91183.39867104101	91186.39867104101	91183.393386791	91186.391564083	3.0	710.91		4	0	2	0	42	40	700	750	90725.202465916	90725.339954791	90725.56508475	90725.835152166	90726.075132
91178.048671041	5.35	0	91181.798671041	5.344710291989031		91186.398632333	91183.393381333	91183.39867104101	91186.39867104101	91183.393386791	91186.391564083	3.0	710.75		4	0	2	0	42	40	700	750	90725.202465916	90725.339954791	90725.56508475	90725.835152166	90726.075132
91178.048671041	5.35	0	91182.548671041	5.344710291989031		91186.398632333	91183.393381333	91183.39867104101	91186.39867104101	91183.393386791	91186.391564083	3.0	710.7		4	0	2	0	42	40	700	750	90725.202465916	90725.339954791	90725.56508475	90725.835152166	90726.075132
91178.048671041	5.35	0	91183.298671041	5.344710291989031		91186.398632333	91183.393381333	91183.39867104101	91186.39867104101	91183.393386791	91186.391564083	3.0	713.26		4	0	2	0	42	40	700	750	90725.202465916	90725.339954791	90725.56508475	90725.835152166	90726.075132
91186.411132291	5.35	0	91186.411132291	5.347531459003221		91198.261078791	91191.75866375	91191.76113229101	91198.26113229101	91191.758668625	91198.259697583	6.5	705.93		3	2	0	0	43	40	700	750	90725.202465916	90725.339954791	90725.56508475	90725.835152166	90726.075132
91186.411132291	5.35	0	91187.161132291	5.347531459003221		91198.261078791	91191.75866375	91191.76113229101	91198.26113229101	91191.758668625	91198.259697583	6.5	709.79		3	2	0	0	43	40	700	750	90725.202465916	90725.339954791	90725.56508475	90725.835152166	90726.075132
91186.411132291	5.35	1	91187.911132291	5.347531459003221		91198.261078791	91191.75866375	91191.76113229101	91198.26113229101	91191.758668625	91198.259697583	6.5	789.2		3	2	0	0	43	40	700	750	90725.202465916	90725.339954791	90725.56508475	90725.835152166	90726.075132
91186.411132291	5.35	0	91188.661132291	5.347531459003221		91198.261078791	91191.75866375	91191.76113229101	91198.26113229101	91191.758668625	91198.259697583	6.5	686.91		3	2	0	0	43	40	700	750	90725.202465916	90725.339954791	90725.56508475	90725.835152166	90726.075132
91186.411132291	5.35	0	91189.411132291	5.347531459003221		91198.261078791	91191.75866375	91191.76113229101	91198.26113229101	91191.758668625	91198.259697583	6.5	686.63		3	2	0	0	43	40	700	750	90725.202465916	90725.339954791	90725.56508475	90725.835152166	90726.075132
91186.411132291	5.35	0	91190.161132291	5.347531459003221		91198.261078791	91191.75866375	91191.76113229101	91198.26113229101	91191.758668625	91198.259697583	6.5	678.45		3	2	0	0	43	40	700	750	90725.202465916	90725.339954791	90725.56508475	90725.835152166	90726.075132
91186.411132291	5.35	0	91190.911132291	5.347531459003221		91198.261078791	91191.75866375	91191.76113229101	91198.26113229101	91191.758668625	91198.259697583	6.5	668.45		3	2	0	0	43	40	700	750	90725.202465916	90725.339954791	90725.56508475	90725.835152166	90726.075132
91186.411132291	5.35	0	91191.661132291	5.347531459003221		91198.261078791	91191.75866375	91191.76113229101	91198.26113229101	91191.758668625	91198.259697583	6.5	666.34		3	2	0	0	43	40	700	750	90725.202465916	90725.339954791	90725.56508475	90725.835152166	90726.075132
91198.27764125001	5.35	0	91198.27764125001	5.3477756249922095		91210.627584333	91203.625416875	91203.62764125002	91210.62764125002	91203.625422333	91210.626488083	7.0	697.77		4	0	2	0	44	40	700	750	90725.202465916	90725.339954791	90725.56508475	90725.835152166	90726.075132
91198.27764125001	5.35	0	91199.02764125001	5.3477756249922095		91210.627584333	91203.625416875	91203.62764125002	91210.62764125002	91203.625422333	91210.626488083	7.0	695.14		4	0	2	0	44	40	700	750	90725.202465916	90725.339954791	90725.56508475	90725.835152166	90726.075132
91198.27764125001	5.35	0	91199.77764125001	5.3477756249922095		91210.627584333	91203.625416875	91203.62764125002	91210.62764125002	91203.625422333	91210.626488083	7.0	717.14		4	0	2	0	44	40	700	750	90725.202465916	90725.339954791	90725.56508475	90725.835152166	90726.075132
91198.27764125001	5.35	0	91200.52764125001	5.3477756249922095		91210.627584333	91203.625416875	91203.62764125002	91210.62764125002	91203.625422333	91210.626488083	7.0	696.6		4	0	2	0	44	40	700	750	90725.202465916	90725.339954791	90725.56508475	90725.835152166	90726.075132
91198.27764125001	5.35	0	91201.27764125001	5.3477756249922095		91210.627584333	91203.625416875	91203.62764125002	91210.62764125002	91203.625422333	91210.626488083	7.0	684.68		4	0	2	0	44	40	700	750	90725.202465916	90725.339954791	90725.56508475	90725.835152166	90726.075132
91198.27764125001	5.35	0	91202.02764125001	5.3477756249922095		91210.627584333	91203.625416875	91203.62764125002	91210.62764125002	91203.625422333	91210.626488083	7.0	676.17		4	0	2	0	44	40	700	750	90725.202465916	90725.339954791	90725.56508475	90725.835152166	90726.075132
91198.27764125001	5.35	0	91202.77764125001	5.3477756249922095		91210.627584333	91203.625416875	91203.62764125002	91210.62764125002	91203.625422333	91210.626488083	7.0	703.62		4	0	2	0	44	40	700	750	90725.202465916	90725.339954791	90725.56508475	90725.835152166	90726.075132
91198.27764125001	5.35	0	91203.52764125001	5.3477756249922095		91210.627584333	91203.625416875	91203.62764125002	91210.62764125002	91203.625422333	91210.626488083	7.0	694.18		4	0	2	0	44	40	700	750	90725.202465916	90725.339954791	90725.56508475	90725.835152166	90726.075132
91210.64602175001	5.35	0	91210.64602175001	5.347810207982548		91219.495980125	91215.993831958	91215.99602175002	91219.49602175002	91215.993837541	91219.491314958	3.5	696.0		3	3	0	0	45	40	700	750	90725.202465916	90725.339954791	90725.56508475	90725.835152166	90726.075132
91210.64602175001	5.35	0	91211.39602175001	5.347810207982548		91219.495980125	91215.993831958	91215.99602175002	91219.49602175002	91215.993837541	91219.491314958	3.5	690.32		3	3	0	0	45	40	700	750	90725.202465916	90725.339954791	90725.56508475	90725.835152166	90726.075132
91210.64602175001	5.35	0	91212.14602175001	5.347810207982548		91219.495980125	91215.993831958	91215.99602175002	91219.49602175002	91215.993837541	91219.491314958	3.5	692.96		3	3	0	0	45	40	700	750	90725.202465916	90725.339954791	90725.56508475	90725.835152166	90726.075132
91210.64602175001	5.35	1	91212.89602175001	5.347810207982548		91219.495980125	91215.993831958	91215.99602175002	91219.49602175002	91215.993837541	91219.491314958	3.5	788.43		3	3	0	0	45	40	700	750	90725.202465916	90725.339954791	90725.56508475	90725.835152166	90726.075132
91210.64602175001	5.35	0	91213.64602175001	5.347810207982548		91219.495980125	91215.993831958	91215.99602175002	91219.49602175002	91215.993837541	91219.491314958	3.5	702.44		3	3	0	0	45	40	700	750	90725.202465916	90725.339954791	90725.56508475	90725.835152166	90726.075132
91210.64602175001	5.35	0	91214.39602175001	5.347810207982548		91219.495980125	91215.993831958	91215.99602175002	91219.49602175002	91215.993837541	91219.491314958	3.5	700.7		3	3	0	0	45	40	700	750	90725.202465916	90725.339954791	90725.56508475	90725.835152166	90726.075132
91210.64602175001	5.35	0	91215.14602175001	5.347810207982548		91219.495980125	91215.993831958	91215.99602175002	91219.49602175002	91215.993837541	91219.491314958	3.5	710.65		3	3	0	0	45	40	700	750	90725.202465916	90725.339954791	90725.56508475	90725.835152166	90726.075132
91210.64602175001	5.35	0	91215.89602175001	5.347810207982548		91219.495980125	91215.993831958	91215.99602175002	91219.49602175002	91215.993837541	91219.491314958	3.5	686.68		3	3	0	0	45	40	700	750	90725.202465916	90725.339954791	90725.56508475	90725.835152166	90726.075132
91219.510667541	5.35	0	91219.510667541	5.349507541992352		91228.360625833	91224.860175083	91224.86066754101	91228.36066754101	91224.860184916	91228.359944458	3.5	712.53		3	4	0	0	46	40	700	750	90725.202465916	90725.339954791	90725.56508475	90725.835152166	90726.075132
91219.510667541	5.35	0	91220.260667541	5.349507541992352		91228.360625833	91224.860175083	91224.86066754101	91228.36066754101	91224.860184916	91228.359944458	3.5	699.68		3	4	0	0	46	40	700	750	90725.202465916	90725.339954791	90725.56508475	90725.835152166	90726.075132
91219.510667541	5.35	0	91221.010667541	5.349507541992352		91228.360625833	91224.860175083	91224.86066754101	91228.36066754101	91224.860184916	91228.359944458	3.5	708.56		3	4	0	0	46	40	700	750	90725.202465916	90725.339954791	90725.56508475	90725.835152166	90726.075132
91219.510667541	5.35	0	91221.760667541	5.349507541992352		91228.360625833	91224.860175083	91224.86066754101	91228.36066754101	91224.860184916	91228.359944458	3.5	698.7		3	4	0	0	46	40	700	750	90725.202465916	90725.339954791	90725.56508475	90725.835152166	90726.075132
