onset	duration	trial_type	onset_tone	duration_imprecise	response_time_imprecise	offset_trial	offset_sound_imprecise	onset_iti	offset_iti	onset_iti_imprecise	offset_iti_imprecise	ITI	frequency	key_pressed	correct	dpos	rule	runs	trial_no	tau_std	lim_std	lim_dev	trigger_time_1	trigger_time_2	trigger_time_3	trigger_time_4	trigger_time_5
94263.22189495801	5.35	0	94263.22189495801	5.349187541985884		94274.071887	94268.5710825	94268.57189495802	94274.07189495802	94268.571087958	94274.070064416	5.5	698.67		3	2	0	2	120	16	700	750	94262.400842166	94262.656494041	94262.836487333	94263.018463458	94263.2114915
94263.22189495801	5.35	0	94263.97189495801	5.349187541985884		94274.071887	94268.5710825	94268.57189495802	94274.07189495802	94268.571087958	94274.070064416	5.5	695.34		3	2	0	2	120	16	700	750	94262.400842166	94262.656494041	94262.836487333	94263.018463458	94263.2114915
94263.22189495801	5.35	1	94264.72189495801	5.349187541985884		94274.071887	94268.5710825	94268.57189495802	94274.07189495802	94268.571087958	94274.070064416	5.5	753.69		3	2	0	2	120	16	700	750	94262.400842166	94262.656494041	94262.836487333	94263.018463458	94263.2114915
94263.22189495801	5.35	0	94265.47189495801	5.349187541985884		94274.071887	94268.5710825	94268.57189495802	94274.07189495802	94268.571087958	94274.070064416	5.5	724.29		3	2	0	2	120	16	700	750	94262.400842166	94262.656494041	94262.836487333	94263.018463458	94263.2114915
94263.22189495801	5.35	0	94266.22189495801	5.349187541985884		94274.071887	94268.5710825	94268.57189495802	94274.07189495802	94268.571087958	94274.070064416	5.5	725.72		3	2	0	2	120	16	700	750	94262.400842166	94262.656494041	94262.836487333	94263.018463458	94263.2114915
94263.22189495801	5.35	0	94266.97189495801	5.349187541985884		94274.071887	94268.5710825	94268.57189495802	94274.07189495802	94268.571087958	94274.070064416	5.5	730.15		3	2	0	2	120	16	700	750	94262.400842166	94262.656494041	94262.836487333	94263.018463458	94263.2114915
94263.22189495801	5.35	0	94267.72189495801	5.349187541985884		94274.071887	94268.5710825	94268.57189495802	94274.07189495802	94268.571087958	94274.070064416	5.5	734.2		3	2	0	2	120	16	700	750	94262.400842166	94262.656494041	94262.836487333	94263.018463458	94263.2114915
94263.22189495801	5.35	0	94268.47189495801	5.349187541985884		94274.071887	94268.5710825	94268.57189495802	94274.07189495802	94268.571087958	94274.070064416	5.5	734.72		3	2	0	2	120	16	700	750	94262.400842166	94262.656494041	94262.836487333	94263.018463458	94263.2114915
94274.076887	5.35	0	94274.076887	5.346938165996107		94285.426874708	94279.423825166	94279.42688700001	94285.42688700001	94279.423831166	94285.425018041	6.0	747.12		3	4	0	2	121	16	700	750	94262.400842166	94262.656494041	94262.836487333	94263.018463458	94263.2114915
94274.076887	5.35	0	94274.826887	5.346938165996107		94285.426874708	94279.423825166	94279.42688700001	94285.42688700001	94279.423831166	94285.425018041	6.0	746.35		3	4	0	2	121	16	700	750	94262.400842166	94262.656494041	94262.836487333	94263.018463458	94263.2114915
94274.076887	5.35	0	94275.576887	5.346938165996107		94285.426874708	94279.423825166	94279.42688700001	94285.42688700001	94279.423831166	94285.425018041	6.0	742.35		3	4	0	2	121	16	700	750	94262.400842166	94262.656494041	94262.836487333	94263.018463458	94263.2114915
94274.076887	5.35	0	94276.326887	5.346938165996107		94285.426874708	94279.423825166	94279.42688700001	94285.42688700001	94279.423831166	94285.425018041	6.0	754.84		3	4	0	2	121	16	700	750	94262.400842166	94262.656494041	94262.836487333	94263.018463458	94263.2114915
94274.076887	5.35	1	94277.076887	5.346938165996107		94285.426874708	94279.423825166	94279.42688700001	94285.42688700001	94279.423831166	94285.425018041	6.0	729.58		3	4	0	2	121	16	700	750	94262.400842166	94262.656494041	94262.836487333	94263.018463458	94263.2114915
94274.076887	5.35	0	94277.826887	5.346938165996107		94285.426874708	94279.423825166	94279.42688700001	94285.42688700001	94279.423831166	94285.425018041	6.0	745.57		3	4	0	2	121	16	700	750	94262.400842166	94262.656494041	94262.836487333	94263.018463458	94263.2114915
94274.076887	5.35	0	94278.576887	5.346938165996107		94285.426874708	94279.423825166	94279.42688700001	94285.42688700001	94279.423831166	94285.425018041	6.0	755.77		3	4	0	2	121	16	700	750	94262.400842166	94262.656494041	94262.836487333	94263.018463458	94263.2114915
94274.076887	5.35	0	94279.326887	5.346938165996107		94285.426874708	94279.423825166	94279.42688700001	94285.42688700001	94279.423831166	94285.425018041	6.0	728.84		3	4	0	2	121	16	700	750	94262.400842166	94262.656494041	94262.836487333	94263.018463458	94263.2114915
94285.43406216601	5.35	0	94285.43406216601	5.349624458991457		94294.784050625	94290.783686625	94290.78406216601	94294.78406216601	94290.783692791	94294.782804916	4.0	743.84		3	2	0	2	122	16	700	750	94262.400842166	94262.656494041	94262.836487333	94263.018463458	94263.2114915
94285.43406216601	5.35	0	94286.18406216601	5.349624458991457		94294.784050625	94290.783686625	94290.78406216601	94294.78406216601	94290.783692791	94294.782804916	4.0	758.65		3	2	0	2	122	16	700	750	94262.400842166	94262.656494041	94262.836487333	94263.018463458	94263.2114915
94285.43406216601	5.35	1	94286.93406216601	5.349624458991457		94294.784050625	94290.783686625	94290.78406216601	94294.78406216601	94290.783692791	94294.782804916	4.0	737.01		3	2	0	2	122	16	700	750	94262.400842166	94262.656494041	94262.836487333	94263.018463458	94263.2114915
94285.43406216601	5.35	0	94287.68406216601	5.349624458991457		94294.784050625	94290.783686625	94290.78406216601	94294.78406216601	94290.783692791	94294.782804916	4.0	713.37		3	2	0	2	122	16	700	750	94262.400842166	94262.656494041	94262.836487333	94263.018463458	94263.2114915
94285.43406216601	5.35	0	94288.43406216601	5.349624458991457		94294.784050625	94290.783686625	94290.78406216601	94294.78406216601	94290.783692791	94294.782804916	4.0	736.97		3	2	0	2	122	16	700	750	94262.400842166	94262.656494041	94262.836487333	94263.018463458	94263.2114915
94285.43406216601	5.35	0	94289.18406216601	5.349624458991457		94294.784050625	94290.783686625	94290.78406216601	94294.78406216601	94290.783692791	94294.782804916	4.0	733.46		3	2	0	2	122	16	700	750	94262.400842166	94262.656494041	94262.836487333	94263.018463458	94263.2114915
94285.43406216601	5.35	0	94289.93406216601	5.349624458991457		94294.784050625	94290.783686625	94290.78406216601	94294.78406216601	94290.783692791	94294.782804916	4.0	744.64		3	2	0	2	122	16	700	750	94262.400842166	94262.656494041	94262.836487333	94263.018463458	94263.2114915
94285.43406216601	5.35	0	94290.68406216601	5.349624458991457		94294.784050625	94290.783686625	94290.78406216601	94294.78406216601	94290.783692791	94294.782804916	4.0	749.12		3	2	0	2	122	16	700	750	94262.400842166	94262.656494041	94262.836487333	94263.018463458	94263.2114915
94294.791863125	5.35	0	94294.791863125	5.348149582991027		94303.6418525	94300.140012708	94300.14186312501	94303.64186312501	94300.140018291	94303.639108333	3.5	734.92		3	2	0	2	123	16	700	750	94262.400842166	94262.656494041	94262.836487333	94263.018463458	94263.2114915
94294.791863125	5.35	0	94295.541863125	5.348149582991027		94303.6418525	94300.140012708	94300.14186312501	94303.64186312501	94300.140018291	94303.639108333	3.5	713.11		3	2	0	2	123	16	700	750	94262.400842166	94262.656494041	94262.836487333	94263.018463458	94263.2114915
94294.791863125	5.35	1	94296.291863125	5.348149582991027		94303.6418525	94300.140012708	94300.14186312501	94303.64186312501	94300.140018291	94303.639108333	3.5	752.41		3	2	0	2	123	16	700	750	94262.400842166	94262.656494041	94262.836487333	94263.018463458	94263.2114915
94294.791863125	5.35	0	94297.041863125	5.348149582991027		94303.6418525	94300.140012708	94300.14186312501	94303.64186312501	94300.140018291	94303.639108333	3.5	719.15		3	2	0	2	123	16	700	750	94262.400842166	94262.656494041	94262.836487333	94263.018463458	94263.2114915
94294.791863125	5.35	0	94297.791863125	5.348149582991027		94303.6418525	94300.140012708	94300.14186312501	94303.64186312501	94300.140018291	94303.639108333	3.5	703.01		3	2	0	2	123	16	700	750	94262.400842166	94262.656494041	94262.836487333	94263.018463458	94263.2114915
94294.791863125	5.35	0	94298.541863125	5.348149582991027		94303.6418525	94300.140012708	94300.14186312501	94303.64186312501	94300.140018291	94303.639108333	3.5	715.98		3	2	0	2	123	16	700	750	94262.400842166	94262.656494041	94262.836487333	94263.018463458	94263.2114915
94294.791863125	5.35	0	94299.291863125	5.348149582991027		94303.6418525	94300.140012708	94300.14186312501	94303.64186312501	94300.140018291	94303.639108333	3.5	718.92		3	2	0	2	123	16	700	750	94262.400842166	94262.656494041	94262.836487333	94263.018463458	94263.2114915
94294.791863125	5.35	0	94300.041863125	5.348149582991027		94303.6418525	94300.140012708	94300.14186312501	94303.64186312501	94300.140018291	94303.639108333	3.5	714.27		3	2	0	2	123	16	700	750	94262.400842166	94262.656494041	94262.836487333	94263.018463458	94263.2114915
94303.649040125	5.35	0	94303.649040125	5.3478049159894		94315.499025375	94308.996845041	94308.99904012501	94315.49904012501	94308.996850708	94315.498693041	6.5	741.77		3	2	0	2	124	16	700	750	94262.400842166	94262.656494041	94262.836487333	94263.018463458	94263.2114915
94303.649040125	5.35	0	94304.399040125	5.3478049159894		94315.499025375	94308.996845041	94308.99904012501	94315.49904012501	94308.996850708	94315.498693041	6.5	697.6		3	2	0	2	124	16	700	750	94262.400842166	94262.656494041	94262.836487333	94263.018463458	94263.2114915
94303.649040125	5.35	1	94305.149040125	5.3478049159894		94315.499025375	94308.996845041	94308.99904012501	94315.49904012501	94308.996850708	94315.498693041	6.5	758.94		3	2	0	2	124	16	700	750	94262.400842166	94262.656494041	94262.836487333	94263.018463458	94263.2114915
94303.649040125	5.35	0	94305.899040125	5.3478049159894		94315.499025375	94308.996845041	94308.99904012501	94315.49904012501	94308.996850708	94315.498693041	6.5	696.58		3	2	0	2	124	16	700	750	94262.400842166	94262.656494041	94262.836487333	94263.018463458	94263.2114915
94303.649040125	5.35	0	94306.649040125	5.3478049159894		94315.499025375	94308.996845041	94308.99904012501	94315.49904012501	94308.996850708	94315.498693041	6.5	716.2		3	2	0	2	124	16	700	750	94262.400842166	94262.656494041	94262.836487333	94263.018463458	94263.2114915
94303.649040125	5.35	0	94307.399040125	5.3478049159894		94315.499025375	94308.996845041	94308.99904012501	94315.49904012501	94308.996850708	94315.498693041	6.5	695.67		3	2	0	2	124	16	700	750	94262.400842166	94262.656494041	94262.836487333	94263.018463458	94263.2114915
94303.649040125	5.35	0	94308.149040125	5.3478049159894		94315.499025375	94308.996845041	94308.99904012501	94315.49904012501	94308.996850708	94315.498693041	6.5	692.14		3	2	0	2	124	16	700	750	94262.400842166	94262.656494041	94262.836487333	94263.018463458	94263.2114915
94303.649040125	5.35	0	94308.899040125	5.3478049159894		94315.499025375	94308.996845041	94308.99904012501	94315.49904012501	94308.996850708	94315.498693041	6.5	714.5		3	2	0	2	124	16	700	750	94262.400842166	94262.656494041	94262.836487333	94263.018463458	94263.2114915
94315.506837875	5.35	0	94315.506837875	5.3483285830006935		94326.856824041	94320.855166458	94320.856837875	94326.856837875	94320.855172458	94326.854750541	6.0	712.58		3	2	0	2	125	16	700	750	94262.400842166	94262.656494041	94262.836487333	94263.018463458	94263.2114915
94315.506837875	5.35	0	94316.256837875	5.3483285830006935		94326.856824041	94320.855166458	94320.856837875	94326.856837875	94320.855172458	94326.854750541	6.0	704.58		3	2	0	2	125	16	700	750	94262.400842166	94262.656494041	94262.836487333	94263.018463458	94263.2114915
94315.506837875	5.35	1	94317.006837875	5.3483285830006935		94326.856824041	94320.855166458	94320.856837875	94326.856837875	94320.855172458	94326.854750541	6.0	740.69		3	2	0	2	125	16	700	750	94262.400842166	94262.656494041	94262.836487333	94263.018463458	94263.2114915
94315.506837875	5.35	0	94317.756837875	5.3483285830006935		94326.856824041	94320.855166458	94320.856837875	94326.856837875	94320.855172458	94326.854750541	6.0	692.47		3	2	0	2	125	16	700	750	94262.400842166	94262.656494041	94262.836487333	94263.018463458	94263.2114915
94315.506837875	5.35	0	94318.506837875	5.3483285830006935		94326.856824041	94320.855166458	94320.856837875	94326.856837875	94320.855172458	94326.854750541	6.0	697.16		3	2	0	2	125	16	700	750	94262.400842166	94262.656494041	94262.836487333	94263.018463458	94263.2114915
94315.506837875	5.35	0	94319.256837875	5.3483285830006935		94326.856824041	94320.855166458	94320.856837875	94326.856837875	94320.855172458	94326.854750541	6.0	705.11		3	2	0	2	125	16	700	750	94262.400842166	94262.656494041	94262.836487333	94263.018463458	94263.2114915
94315.506837875	5.35	0	94320.006837875	5.3483285830006935		94326.856824041	94320.855166458	94320.856837875	94326.856837875	94320.855172458	94326.854750541	6.0	698.94		3	2	0	2	125	16	700	750	94262.400842166	94262.656494041	94262.836487333	94263.018463458	94263.2114915
94315.506837875	5.35	0	94320.756837875	5.3483285830006935		94326.856824041	94320.855166458	94320.856837875	94326.856837875	94320.855172458	94326.854750541	6.0	723.21		3	2	0	2	125	16	700	750	94262.400842166	94262.656494041	94262.836487333	94263.018463458	94263.2114915
94326.863074041	5.35	0	94326.863074041	5.34682312500081		94337.713060375	94332.209897166	94332.213074041	94337.713074041	94332.209903583	94337.711072125	5.5	728.43		3	3	0	2	126	16	700	750	94262.400842166	94262.656494041	94262.836487333	94263.018463458	94263.2114915
94326.863074041	5.35	0	94327.613074041	5.34682312500081		94337.713060375	94332.209897166	94332.213074041	94337.713074041	94332.209903583	94337.711072125	5.5	724.16		3	3	0	2	126	16	700	750	94262.400842166	94262.656494041	94262.836487333	94263.018463458	94263.2114915
94326.863074041	5.35	0	94328.363074041	5.34682312500081		94337.713060375	94332.209897166	94332.213074041	94337.713074041	94332.209903583	94337.711072125	5.5	698.16		3	3	0	2	126	16	700	750	94262.400842166	94262.656494041	94262.836487333	94263.018463458	94263.2114915
94326.863074041	5.35	1	94329.113074041	5.34682312500081		94337.713060375	94332.209897166	94332.213074041	94337.713074041	94332.209903583	94337.711072125	5.5	738.49		3	3	0	2	126	16	700	750	94262.400842166	94262.656494041	94262.836487333	94263.018463458	94263.2114915
94326.863074041	5.35	0	94329.863074041	5.34682312500081		94337.713060375	94332.209897166	94332.213074041	94337.713074041	94332.209903583	94337.711072125	5.5	732.43		3	3	0	2	126	16	700	750	94262.400842166	94262.656494041	94262.836487333	94263.018463458	94263.2114915
94326.863074041	5.35	0	94330.613074041	5.34682312500081		94337.713060375	94332.209897166	94332.213074041	94337.713074041	94332.209903583	94337.711072125	5.5	715.71		3	3	0	2	126	16	700	750	94262.400842166	94262.656494041	94262.836487333	94263.018463458	94263.2114915
94326.863074041	5.35	0	94331.363074041	5.34682312500081		94337.713060375	94332.209897166	94332.213074041	94337.713074041	94332.209903583	94337.711072125	5.5	716.04		3	3	0	2	126	16	700	750	94262.400842166	94262.656494041	94262.836487333	94263.018463458	94263.2114915
94326.863074041	5.35	0	94332.113074041	5.34682312500081		94337.713060375	94332.209897166	94332.213074041	94337.713074041	94332.209903583	94337.711072125	5.5	721.05		3	3	0	2	126	16	700	750	94262.400842166	94262.656494041	94262.836487333	94263.018463458	94263.2114915
94337.71962283301	5.35	0	94337.71962283301	5.349247207981534		94349.569606708	94343.068870041	94343.06962283302	94349.56962283302	94343.068875791	94349.568063625	6.5	734.87		3	3	0	2	127	16	700	750	94262.400842166	94262.656494041	94262.836487333	94263.018463458	94263.2114915
94337.71962283301	5.35	0	94338.46962283301	5.349247207981534		94349.569606708	94343.068870041	94343.06962283302	94349.56962283302	94343.068875791	94349.568063625	6.5	733.64		3	3	0	2	127	16	700	750	94262.400842166	94262.656494041	94262.836487333	94263.018463458	94263.2114915
94337.71962283301	5.35	0	94339.21962283301	5.349247207981534		94349.569606708	94343.068870041	94343.06962283302	94349.56962283302	94343.068875791	94349.568063625	6.5	727.92		3	3	0	2	127	16	700	750	94262.400842166	94262.656494041	94262.836487333	94263.018463458	94263.2114915
94337.71962283301	5.35	1	94339.96962283301	5.349247207981534		94349.569606708	94343.068870041	94343.06962283302	94349.56962283302	94343.068875791	94349.568063625	6.5	780.29		3	3	0	2	127	16	700	750	94262.400842166	94262.656494041	94262.836487333	94263.018463458	94263.2114915
94337.71962283301	5.35	0	94340.71962283301	5.349247207981534		94349.569606708	94343.068870041	94343.06962283302	94349.56962283302	94343.068875791	94349.568063625	6.5	728.48		3	3	0	2	127	16	700	750	94262.400842166	94262.656494041	94262.836487333	94263.018463458	94263.2114915
94337.71962283301	5.35	0	94341.46962283301	5.349247207981534		94349.569606708	94343.068870041	94343.06962283302	94349.56962283302	94343.068875791	94349.568063625	6.5	753.54		3	3	0	2	127	16	700	750	94262.400842166	94262.656494041	94262.836487333	94263.018463458	94263.2114915
94337.71962283301	5.35	0	94342.21962283301	5.349247207981534		94349.569606708	94343.068870041	94343.06962283302	94349.56962283302	94343.068875791	94349.568063625	6.5	735.79		3	3	0	2	127	16	700	750	94262.400842166	94262.656494041	94262.836487333	94263.018463458	94263.2114915
94337.71962283301	5.35	0	94342.96962283301	5.349247207981534		94349.569606708	94343.068870041	94343.06962283302	94349.56962283302	94343.068875791	94349.568063625	6.5	741.59		3	3	0	2	127	16	700	750	94262.400842166	94262.656494041	94262.836487333	94263.018463458	94263.2114915
94349.574606666	5.35	0	94349.574606666	5.3469549999863375		94359.924590541	94354.921561666	94354.92460666601	94359.92460666601	94354.921567458	94359.922562458	5.0	738.74		3	2	0	2	128	16	700	750	94262.400842166	94262.656494041	94262.836487333	94263.018463458	94263.2114915
94349.574606666	5.35	0	94350.324606666	5.3469549999863375		94359.924590541	94354.921561666	94354.92460666601	94359.92460666601	94354.921567458	94359.922562458	5.0	731.91		3	2	0	2	128	16	700	750	94262.400842166	94262.656494041	94262.836487333	94263.018463458	94263.2114915
94349.574606666	5.35	1	94351.074606666	5.3469549999863375		94359.924590541	94354.921561666	94354.92460666601	94359.92460666601	94354.921567458	94359.922562458	5.0	736.93		3	2	0	2	128	16	700	750	94262.400842166	94262.656494041	94262.836487333	94263.018463458	94263.2114915
94349.574606666	5.35	0	94351.824606666	5.3469549999863375		94359.924590541	94354.921561666	94354.92460666601	94359.92460666601	94354.921567458	94359.922562458	5.0	734.07		3	2	0	2	128	16	700	750	94262.400842166	94262.656494041	94262.836487333	94263.018463458	94263.2114915
94349.574606666	5.35	0	94352.574606666	5.3469549999863375		94359.924590541	94354.921561666	94354.92460666601	94359.92460666601	94354.921567458	94359.922562458	5.0	735.16		3	2	0	2	128	16	700	750	94262.400842166	94262.656494041	94262.836487333	94263.018463458	94263.2114915
94349.574606666	5.35	0	94353.324606666	5.3469549999863375		94359.924590541	94354.921561666	94354.92460666601	94359.92460666601	94354.921567458	94359.922562458	5.0	759.3		3	2	0	2	128	16	700	750	94262.400842166	94262.656494041	94262.836487333	94263.018463458	94263.2114915
94349.574606666	5.35	0	94354.074606666	5.3469549999863375		94359.924590541	94354.921561666	94354.92460666601	94359.92460666601	94354.921567458	94359.922562458	5.0	747.35		3	2	0	2	128	16	700	750	94262.400842166	94262.656494041	94262.836487333	94263.018463458	94263.2114915
94349.574606666	5.35	0	94354.824606666	5.3469549999863375		94359.924590541	94354.921561666	94354.92460666601	94359.92460666601	94354.921567458	94359.922562458	5.0	755.98		3	2	0	2	128	16	700	750	94262.400842166	94262.656494041	94262.836487333	94263.018463458	94263.2114915
94359.93084054101	5.35	0	94359.93084054101	5.348001749982359		94368.780824958	94365.278842291	94365.28084054102	94368.78084054102	94365.278847375	94368.77902625	3.5	760.3		3	4	0	2	129	16	700	750	94262.400842166	94262.656494041	94262.836487333	94263.018463458	94263.2114915
94359.93084054101	5.35	0	94360.68084054101	5.348001749982359		94368.780824958	94365.278842291	94365.28084054102	94368.78084054102	94365.278847375	94368.77902625	3.5	785.93		3	4	0	2	129	16	700	750	94262.400842166	94262.656494041	94262.836487333	94263.018463458	94263.2114915
94359.93084054101	5.35	0	94361.43084054101	5.348001749982359		94368.780824958	94365.278842291	94365.28084054102	94368.78084054102	94365.278847375	94368.77902625	3.5	740.36		3	4	0	2	129	16	700	750	94262.400842166	94262.656494041	94262.836487333	94263.018463458	94263.2114915
94359.93084054101	5.35	0	94362.18084054101	5.348001749982359		94368.780824958	94365.278842291	94365.28084054102	94368.78084054102	94365.278847375	94368.77902625	3.5	748.58		3	4	0	2	129	16	700	750	94262.400842166	94262.656494041	94262.836487333	94263.018463458	94263.2114915
94359.93084054101	5.35	1	94362.93084054101	5.348001749982359		94368.780824958	94365.278842291	94365.28084054102	94368.78084054102	94365.278847375	94368.77902625	3.5	731.4		3	4	0	2	129	16	700	750	94262.400842166	94262.656494041	94262.836487333	94263.018463458	94263.2114915
94359.93084054101	5.35	0	94363.68084054101	5.348001749982359		94368.780824958	94365.278842291	94365.28084054102	94368.78084054102	94365.278847375	94368.77902625	3.5	714.72		3	4	0	2	129	16	700	750	94262.400842166	94262.656494041	94262.836487333	94263.018463458	94263.2114915
94359.93084054101	5.35	0	94364.43084054101	5.348001749982359		94368.780824958	94365.278842291	94365.28084054102	94368.78084054102	94365.278847375	94368.77902625	3.5	718.41		3	4	0	2	129	16	700	750	94262.400842166	94262.656494041	94262.836487333	94263.018463458	94263.2114915
94359.93084054101	5.35	0	94365.18084054101	5.348001749982359		94368.780824958	94365.278842291	94365.28084054102	94368.78084054102	94365.278847375	94368.77902625	3.5	717.99		3	4	0	2	129	16	700	750	94262.400842166	94262.656494041	94262.836487333	94263.018463458	94263.2114915
94368.78613741601	5.35	0	94368.78613741601	5.349570791993756		94377.13612325	94374.135708208	94374.13613741602	94377.13613741602	94374.135713458	94377.135898583	3.0	711.12		3	3	0	2	130	16	700	750	94262.400842166	94262.656494041	94262.836487333	94263.018463458	94263.2114915
94368.78613741601	5.35	0	94369.53613741601	5.349570791993756		94377.13612325	94374.135708208	94374.13613741602	94377.13613741602	94374.135713458	94377.135898583	3.0	703.87		3	3	0	2	130	16	700	750	94262.400842166	94262.656494041	94262.836487333	94263.018463458	94263.2114915
94368.78613741601	5.35	0	94370.28613741601	5.349570791993756		94377.13612325	94374.135708208	94374.13613741602	94377.13613741602	94374.135713458	94377.135898583	3.0	714.81		3	3	0	2	130	16	700	750	94262.400842166	94262.656494041	94262.836487333	94263.018463458	94263.2114915
94368.78613741601	5.35	1	94371.03613741601	5.349570791993756		94377.13612325	94374.135708208	94374.13613741602	94377.13613741602	94374.135713458	94377.135898583	3.0	722.53		3	3	0	2	130	16	700	750	94262.400842166	94262.656494041	94262.836487333	94263.018463458	94263.2114915
94368.78613741601	5.35	0	94371.78613741601	5.349570791993756		94377.13612325	94374.135708208	94374.13613741602	94377.13613741602	94374.135713458	94377.135898583	3.0	707.26		3	3	0	2	130	16	700	750	94262.400842166	94262.656494041	94262.836487333	94263.018463458	94263.2114915
94368.78613741601	5.35	0	94372.53613741601	5.349570791993756		94377.13612325	94374.135708208	94374.13613741602	94377.13613741602	94374.135713458	94377.135898583	3.0	693.8		3	3	0	2	130	16	700	750	94262.400842166	94262.656494041	94262.836487333	94263.018463458	94263.2114915
94368.78613741601	5.35	0	94373.28613741601	5.349570791993756		94377.13612325	94374.135708208	94374.13613741602	94377.13613741602	94374.135713458	94377.135898583	3.0	673.72		3	3	0	2	130	16	700	750	94262.400842166	94262.656494041	94262.836487333	94263.018463458	94263.2114915
94368.78613741601	5.35	0	94374.03613741601	5.349570791993756		94377.13612325	94374.135708208	94374.13613741602	94377.13613741602	94374.135713458	94377.135898583	3.0	667.54		3	3	0	2	130	16	700	750	94262.400842166	94262.656494041	94262.836487333	94263.018463458	94263.2114915
94377.14331075	5.35	0	94377.14331075	5.348528916001669		94388.493292791	94382.491839666	94382.49331075001	94388.49331075001	94382.491844583	94388.493128208	6.0	678.93		3	2	0	2	131	16	700	750	94262.400842166	94262.656494041	94262.836487333	94263.018463458	94263.2114915
94377.14331075	5.35	0	94377.89331075	5.348528916001669		94388.493292791	94382.491839666	94382.49331075001	94388.49331075001	94382.491844583	94388.493128208	6.0	674.39		3	2	0	2	131	16	700	750	94262.400842166	94262.656494041	94262.836487333	94263.018463458	94263.2114915
94377.14331075	5.35	1	94378.64331075	5.348528916001669		94388.493292791	94382.491839666	94382.49331075001	94388.49331075001	94382.491844583	94388.493128208	6.0	772.65		3	2	0	2	131	16	700	750	94262.400842166	94262.656494041	94262.836487333	94263.018463458	94263.2114915
94377.14331075	5.35	0	94379.39331075	5.348528916001669		94388.493292791	94382.491839666	94382.49331075001	94388.49331075001	94382.491844583	94388.493128208	6.0	671.33		3	2	0	2	131	16	700	750	94262.400842166	94262.656494041	94262.836487333	94263.018463458	94263.2114915
94377.14331075	5.35	0	94380.14331075	5.348528916001669		94388.493292791	94382.491839666	94382.49331075001	94388.49331075001	94382.491844583	94388.493128208	6.0	662.21		3	2	0	2	131	16	700	750	94262.400842166	94262.656494041	94262.836487333	94263.018463458	94263.2114915
94377.14331075	5.35	0	94380.89331075	5.348528916001669		94388.493292791	94382.491839666	94382.49331075001	94388.49331075001	94382.491844583	94388.493128208	6.0	687.59		3	2	0	2	131	16	700	750	94262.400842166	94262.656494041	94262.836487333	94263.018463458	94263.2114915
94377.14331075	5.35	0	94381.64331075	5.348528916001669		94388.493292791	94382.491839666	94382.49331075001	94388.49331075001	94382.491844583	94388.493128208	6.0	688.06		3	2	0	2	131	16	700	750	94262.400842166	94262.656494041	94262.836487333	94263.018463458	94263.2114915
94377.14331075	5.35	0	94382.39331075	5.348528916001669		94388.493292791	94382.491839666	94382.49331075001	94388.49331075001	94382.491844583	94388.493128208	6.0	690.27		3	2	0	2	131	16	700	750	94262.400842166	94262.656494041	94262.836487333	94263.018463458	94263.2114915
94388.50048025	5.35	0	94388.50048025	5.348314916001982		94400.850457541	94393.848795166	94393.85048025001	94400.85048025001	94393.848803416	94400.848056	7.0	693.2		4	0	2	2	132	16	700	750	94262.400842166	94262.656494041	94262.836487333	94263.018463458	94263.2114915
94388.50048025	5.35	0	94389.25048025	5.348314916001982		94400.850457541	94393.848795166	94393.85048025001	94400.85048025001	94393.848803416	94400.848056	7.0	693.77		4	0	2	2	132	16	700	750	94262.400842166	94262.656494041	94262.836487333	94263.018463458	94263.2114915
94388.50048025	5.35	0	94390.00048025	5.348314916001982		94400.850457541	94393.848795166	94393.85048025001	94400.85048025001	94393.848803416	94400.848056	7.0	704.5		4	0	2	2	132	16	700	750	94262.400842166	94262.656494041	94262.836487333	94263.018463458	94263.2114915
94388.50048025	5.35	0	94390.75048025	5.348314916001982		94400.850457541	94393.848795166	94393.85048025001	94400.85048025001	94393.848803416	94400.848056	7.0	714.33		4	0	2	2	132	16	700	750	94262.400842166	94262.656494041	94262.836487333	94263.018463458	94263.2114915
94388.50048025	5.35	0	94391.50048025	5.348314916001982		94400.850457541	94393.848795166	94393.85048025001	94400.85048025001	94393.848803416	94400.848056	7.0	685.99		4	0	2	2	132	16	700	750	94262.400842166	94262.656494041	94262.836487333	94263.018463458	94263.2114915
94388.50048025	5.35	0	94392.25048025	5.348314916001982		94400.850457541	94393.848795166	94393.85048025001	94400.85048025001	94393.848803416	94400.848056	7.0	688.92		4	0	2	2	132	16	700	750	94262.400842166	94262.656494041	94262.836487333	94263.018463458	94263.2114915
94388.50048025	5.35	0	94393.00048025	5.348314916001982		94400.850457541	94393.848795166	94393.85048025001	94400.85048025001	94393.848803416	94400.848056	7.0	692.63		4	0	2	2	132	16	700	750	94262.400842166	94262.656494041	94262.836487333	94263.018463458	94263.2114915
94388.50048025	5.35	0	94393.75048025	5.348314916001982		94400.850457541	94393.848795166	94393.85048025001	94400.85048025001	94393.848803416	94400.848056	7.0	674.96		4	0	2	2	132	16	700	750	94262.400842166	94262.656494041	94262.836487333	94263.018463458	94263.2114915
94400.85577000001	5.35	0	94400.85577000001	5.347762165984022		94412.705747208	94406.203532166	94406.20577000002	94412.70577000002	94406.203537916	94412.70526175	6.5	660.87		3	5	1	2	133	16	700	750	94262.400842166	94262.656494041	94262.836487333	94263.018463458	94263.2114915
94400.85577000001	5.35	0	94401.60577000001	5.347762165984022		94412.705747208	94406.203532166	94406.20577000002	94412.70577000002	94406.203537916	94412.70526175	6.5	673.32		3	5	1	2	133	16	700	750	94262.400842166	94262.656494041	94262.836487333	94263.018463458	94263.2114915
94400.85577000001	5.35	0	94402.35577000001	5.347762165984022		94412.705747208	94406.203532166	94406.20577000002	94412.70577000002	94406.203537916	94412.70526175	6.5	674.11		3	5	1	2	133	16	700	750	94262.400842166	94262.656494041	94262.836487333	94263.018463458	94263.2114915
94400.85577000001	5.35	0	94403.10577000001	5.347762165984022		94412.705747208	94406.203532166	94406.20577000002	94412.70577000002	94406.203537916	94412.70526175	6.5	674.58		3	5	1	2	133	16	700	750	94262.400842166	94262.656494041	94262.836487333	94263.018463458	94263.2114915
94400.85577000001	5.35	0	94403.85577000001	5.347762165984022		94412.705747208	94406.203532166	94406.20577000002	94412.70577000002	94406.203537916	94412.70526175	6.5	672.74		3	5	1	2	133	16	700	750	94262.400842166	94262.656494041	94262.836487333	94263.018463458	94263.2114915
94400.85577000001	5.35	1	94404.60577000001	5.347762165984022		94412.705747208	94406.203532166	94406.20577000002	94412.70577000002	94406.203537916	94412.70526175	6.5	775.08		3	5	1	2	133	16	700	750	94262.400842166	94262.656494041	94262.836487333	94263.018463458	94263.2114915
94400.85577000001	5.35	0	94405.35577000001	5.347762165984022		94412.705747208	94406.203532166	94406.20577000002	94412.70577000002	94406.203537916	94412.70526175	6.5	674.67		3	5	1	2	133	16	700	750	94262.400842166	94262.656494041	94262.836487333	94263.018463458	94263.2114915
94400.85577000001	5.35	0	94406.10577000001	5.347762165984022		94412.705747208	94406.203532166	94406.20577000002	94412.70577000002	94406.203537916	94412.70526175	6.5	708.23		3	5	1	2	133	16	700	750	94262.400842166	94262.656494041	94262.836487333	94263.018463458	94263.2114915
94412.712934708	5.35	0	94412.712934708	5.3493509580002865		94421.062917583	94418.062285666	94418.06293470801	94421.06293470801	94418.062291583	94421.062276125	3.0	703.48		3	6	1	2	134	16	700	750	94262.400842166	94262.656494041	94262.836487333	94263.018463458	94263.2114915
94412.712934708	5.35	0	94413.462934708	5.3493509580002865		94421.062917583	94418.062285666	94418.06293470801	94421.06293470801	94418.062291583	94421.062276125	3.0	695.97		3	6	1	2	134	16	700	750	94262.400842166	94262.656494041	94262.836487333	94263.018463458	94263.2114915
94412.712934708	5.35	0	94414.212934708	5.3493509580002865		94421.062917583	94418.062285666	94418.06293470801	94421.06293470801	94418.062291583	94421.062276125	3.0	692.68		3	6	1	2	134	16	700	750	94262.400842166	94262.656494041	94262.836487333	94263.018463458	94263.2114915
94412.712934708	5.35	0	94414.962934708	5.3493509580002865		94421.062917583	94418.062285666	94418.06293470801	94421.06293470801	94418.062291583	94421.062276125	3.0	686.0		3	6	1	2	134	16	700	750	94262.400842166	94262.656494041	94262.836487333	94263.018463458	94263.2114915
94412.712934708	5.35	0	94415.712934708	5.3493509580002865		94421.062917583	94418.062285666	94418.06293470801	94421.06293470801	94418.062291583	94421.062276125	3.0	694.99		3	6	1	2	134	16	700	750	94262.400842166	94262.656494041	94262.836487333	94263.018463458	94263.2114915
94412.712934708	5.35	0	94416.462934708	5.3493509580002865		94421.062917583	94418.062285666	94418.06293470801	94421.06293470801	94418.062291583	94421.062276125	3.0	679.32		3	6	1	2	134	16	700	750	94262.400842166	94262.656494041	94262.836487333	94263.018463458	94263.2114915
94412.712934708	5.35	1	94417.212934708	5.3493509580002865		94421.062917583	94418.062285666	94418.06293470801	94421.06293470801	94418.062291583	94421.062276125	3.0	764.69		3	6	1	2	134	16	700	750	94262.400842166	94262.656494041	94262.836487333	94263.018463458	94263.2114915
94412.712934708	5.35	0	94417.962934708	5.3493509580002865		94421.062917583	94418.062285666	94418.06293470801	94421.06293470801	94418.062291583	94421.062276125	3.0	663.09		3	6	1	2	134	16	700	750	94262.400842166	94262.656494041	94262.836487333	94263.018463458	94263.2114915
94421.069792541	5.35	0	94421.069792541	5.349911416997202		94431.919769875	94426.419703958	94426.41979254101	94431.91979254101	94426.419709666	94431.919725958	5.5	684.27		3	6	1	2	135	16	700	750	94262.400842166	94262.656494041	94262.836487333	94263.018463458	94263.2114915
94421.069792541	5.35	0	94421.819792541	5.349911416997202		94431.919769875	94426.419703958	94426.41979254101	94431.91979254101	94426.419709666	94431.919725958	5.5	667.2		3	6	1	2	135	16	700	750	94262.400842166	94262.656494041	94262.836487333	94263.018463458	94263.2114915
94421.069792541	5.35	0	94422.569792541	5.349911416997202		94431.919769875	94426.419703958	94426.41979254101	94431.91979254101	94426.419709666	94431.919725958	5.5	658.03		3	6	1	2	135	16	700	750	94262.400842166	94262.656494041	94262.836487333	94263.018463458	94263.2114915
94421.069792541	5.35	0	94423.319792541	5.349911416997202		94431.919769875	94426.419703958	94426.41979254101	94431.91979254101	94426.419709666	94431.919725958	5.5	659.2		3	6	1	2	135	16	700	750	94262.400842166	94262.656494041	94262.836487333	94263.018463458	94263.2114915
94421.069792541	5.35	0	94424.069792541	5.349911416997202		94431.919769875	94426.419703958	94426.41979254101	94431.91979254101	94426.419709666	94431.919725958	5.5	660.34		3	6	1	2	135	16	700	750	94262.400842166	94262.656494041	94262.836487333	94263.018463458	94263.2114915
94421.069792541	5.35	0	94424.819792541	5.349911416997202		94431.919769875	94426.419703958	94426.41979254101	94431.91979254101	94426.419709666	94431.919725958	5.5	645.34		3	6	1	2	135	16	700	750	94262.400842166	94262.656494041	94262.836487333	94263.018463458	94263.2114915
94421.069792541	5.35	1	94425.569792541	5.349911416997202		94431.919769875	94426.419703958	94426.41979254101	94431.91979254101	94426.419709666	94431.919725958	5.5	741.2		3	6	1	2	135	16	700	750	94262.400842166	94262.656494041	94262.836487333	94263.018463458	94263.2114915
94421.069792541	5.35	0	94426.319792541	5.349911416997202		94431.919769875	94426.419703958	94426.41979254101	94431.91979254101	94426.419709666	94431.919725958	5.5	682.38		3	6	1	2	135	16	700	750	94262.400842166	94262.656494041	94262.836487333	94263.018463458	94263.2114915
94431.92758233301	5.35	0	94431.92758233301	5.349446207983419		94442.277561208	94437.277028541	94437.27758233302	94442.27758233302	94437.277032958	94442.276690041	5.0	669.86		3	6	1	2	136	16	700	750	94262.400842166	94262.656494041	94262.836487333	94263.018463458	94263.2114915
94431.92758233301	5.35	0	94432.67758233301	5.349446207983419		94442.277561208	94437.277028541	94437.27758233302	94442.27758233302	94437.277032958	94442.276690041	5.0	684.96		3	6	1	2	136	16	700	750	94262.400842166	94262.656494041	94262.836487333	94263.018463458	94263.2114915
94431.92758233301	5.35	0	94433.42758233301	5.349446207983419		94442.277561208	94437.277028541	94437.27758233302	94442.27758233302	94437.277032958	94442.276690041	5.0	697.4		3	6	1	2	136	16	700	750	94262.400842166	94262.656494041	94262.836487333	94263.018463458	94263.2114915
94431.92758233301	5.35	0	94434.17758233301	5.349446207983419		94442.277561208	94437.277028541	94437.27758233302	94442.27758233302	94437.277032958	94442.276690041	5.0	707.59		3	6	1	2	136	16	700	750	94262.400842166	94262.656494041	94262.836487333	94263.018463458	94263.2114915
94431.92758233301	5.35	0	94434.92758233301	5.349446207983419		94442.277561208	94437.277028541	94437.27758233302	94442.27758233302	94437.277032958	94442.276690041	5.0	702.1		3	6	1	2	136	16	700	750	94262.400842166	94262.656494041	94262.836487333	94263.018463458	94263.2114915
94431.92758233301	5.35	0	94435.67758233301	5.349446207983419		94442.277561208	94437.277028541	94437.27758233302	94442.27758233302	94437.277032958	94442.276690041	5.0	701.12		3	6	1	2	136	16	700	750	94262.400842166	94262.656494041	94262.836487333	94263.018463458	94263.2114915
94431.92758233301	5.35	1	94436.42758233301	5.349446207983419		94442.277561208	94437.277028541	94437.27758233302	94442.27758233302	94437.277032958	94442.276690041	5.0	753.41		3	6	1	2	136	16	700	750	94262.400842166	94262.656494041	94262.836487333	94263.018463458	94263.2114915
94431.92758233301	5.35	0	94437.17758233301	5.349446207983419		94442.277561208	94437.277028541	94437.27758233302	94442.27758233302	94437.277032958	94442.276690041	5.0	728.08		3	6	1	2	136	16	700	750	94262.400842166	94262.656494041	94262.836487333	94263.018463458	94263.2114915
94442.283811208	5.35	0	94442.283811208	5.349132291987189		94455.133783958	94447.6329435	94447.63381120801	94455.13381120801	94447.632948208	94455.132600666	7.5	720.79		3	5	1	2	137	16	700	750	94262.400842166	94262.656494041	94262.836487333	94263.018463458	94263.2114915
94442.283811208	5.35	0	94443.033811208	5.349132291987189		94455.133783958	94447.6329435	94447.63381120801	94455.13381120801	94447.632948208	94455.132600666	7.5	712.66		3	5	1	2	137	16	700	750	94262.400842166	94262.656494041	94262.836487333	94263.018463458	94263.2114915
94442.283811208	5.35	0	94443.783811208	5.349132291987189		94455.133783958	94447.6329435	94447.63381120801	94455.13381120801	94447.632948208	94455.132600666	7.5	707.26		3	5	1	2	137	16	700	750	94262.400842166	94262.656494041	94262.836487333	94263.018463458	94263.2114915
94442.283811208	5.35	0	94444.533811208	5.349132291987189		94455.133783958	94447.6329435	94447.63381120801	94455.13381120801	94447.632948208	94455.132600666	7.5	718.86		3	5	1	2	137	16	700	750	94262.400842166	94262.656494041	94262.836487333	94263.018463458	94263.2114915
94442.283811208	5.35	0	94445.283811208	5.349132291987189		94455.133783958	94447.6329435	94447.63381120801	94455.13381120801	94447.632948208	94455.132600666	7.5	735.56		3	5	1	2	137	16	700	750	94262.400842166	94262.656494041	94262.836487333	94263.018463458	94263.2114915
94442.283811208	5.35	1	94446.033811208	5.349132291987189		94455.133783958	94447.6329435	94447.63381120801	94455.13381120801	94447.632948208	94455.132600666	7.5	750.6		3	5	1	2	137	16	700	750	94262.400842166	94262.656494041	94262.836487333	94263.018463458	94263.2114915
94442.283811208	5.35	0	94446.783811208	5.349132291987189		94455.133783958	94447.6329435	94447.63381120801	94455.13381120801	94447.632948208	94455.132600666	7.5	755.14		3	5	1	2	137	16	700	750	94262.400842166	94262.656494041	94262.836487333	94263.018463458	94263.2114915
94442.283811208	5.35	0	94447.533811208	5.349132291987189		94455.133783958	94447.6329435	94447.63381120801	94455.13381120801	94447.632948208	94455.132600666	7.5	725.28		3	5	1	2	137	16	700	750	94262.400842166	94262.656494041	94262.836487333	94263.018463458	94263.2114915
94455.13878395801	5.35	0	94455.13878395801	5.349345374983386		94467.9887605	94460.488129333	94460.48878395802	94467.98878395802	94460.488134666	94467.987482208	7.5	707.29		4	0	2	2	138	16	700	750	94262.400842166	94262.656494041	94262.836487333	94263.018463458	94263.2114915
94455.13878395801	5.35	0	94455.88878395801	5.349345374983386		94467.9887605	94460.488129333	94460.48878395802	94467.98878395802	94460.488134666	94467.987482208	7.5	708.59		4	0	2	2	138	16	700	750	94262.400842166	94262.656494041	94262.836487333	94263.018463458	94263.2114915
94455.13878395801	5.35	0	94456.63878395801	5.349345374983386		94467.9887605	94460.488129333	94460.48878395802	94467.98878395802	94460.488134666	94467.987482208	7.5	701.56		4	0	2	2	138	16	700	750	94262.400842166	94262.656494041	94262.836487333	94263.018463458	94263.2114915
94455.13878395801	5.35	0	94457.38878395801	5.349345374983386		94467.9887605	94460.488129333	94460.48878395802	94467.98878395802	94460.488134666	94467.987482208	7.5	728.26		4	0	2	2	138	16	700	750	94262.400842166	94262.656494041	94262.836487333	94263.018463458	94263.2114915
94455.13878395801	5.35	0	94458.13878395801	5.349345374983386		94467.9887605	94460.488129333	94460.48878395802	94467.98878395802	94460.488134666	94467.987482208	7.5	728.22		4	0	2	2	138	16	700	750	94262.400842166	94262.656494041	94262.836487333	94263.018463458	94263.2114915
94455.13878395801	5.35	0	94458.88878395801	5.349345374983386		94467.9887605	94460.488129333	94460.48878395802	94467.98878395802	94460.488134666	94467.987482208	7.5	697.59		4	0	2	2	138	16	700	750	94262.400842166	94262.656494041	94262.836487333	94263.018463458	94263.2114915
94455.13878395801	5.35	0	94459.63878395801	5.349345374983386		94467.9887605	94460.488129333	94460.48878395802	94467.98878395802	94460.488134666	94467.987482208	7.5	712.84		4	0	2	2	138	16	700	750	94262.400842166	94262.656494041	94262.836487333	94263.018463458	94263.2114915
94455.13878395801	5.35	0	94460.38878395801	5.349345374983386		94467.9887605	94460.488129333	94460.48878395802	94467.98878395802	94460.488134666	94467.987482208	7.5	728.68		4	0	2	2	138	16	700	750	94262.400842166	94262.656494041	94262.836487333	94263.018463458	94263.2114915
94467.99407300001	5.35	0	94467.99407300001	5.348368749997462		94479.344060833	94473.34244175	94473.34407300001	94479.34407300001	94473.342446166	94479.343380958	6.0	699.82		3	4	1	2	139	16	700	750	94262.400842166	94262.656494041	94262.836487333	94263.018463458	94263.2114915
94467.99407300001	5.35	0	94468.74407300001	5.348368749997462		94479.344060833	94473.34244175	94473.34407300001	94479.34407300001	94473.342446166	94479.343380958	6.0	725.27		3	4	1	2	139	16	700	750	94262.400842166	94262.656494041	94262.836487333	94263.018463458	94263.2114915
94467.99407300001	5.35	0	94469.49407300001	5.348368749997462		94479.344060833	94473.34244175	94473.34407300001	94479.34407300001	94473.342446166	94479.343380958	6.0	728.25		3	4	1	2	139	16	700	750	94262.400842166	94262.656494041	94262.836487333	94263.018463458	94263.2114915
94467.99407300001	5.35	0	94470.24407300001	5.348368749997462		94479.344060833	94473.34244175	94473.34407300001	94479.34407300001	94473.342446166	94479.343380958	6.0	736.39		3	4	1	2	139	16	700	750	94262.400842166	94262.656494041	94262.836487333	94263.018463458	94263.2114915
94467.99407300001	5.35	1	94470.99407300001	5.348368749997462		94479.344060833	94473.34244175	94473.34407300001	94479.34407300001	94473.342446166	94479.343380958	6.0	749.35		3	4	1	2	139	16	700	750	94262.400842166	94262.656494041	94262.836487333	94263.018463458	94263.2114915
94467.99407300001	5.35	0	94471.74407300001	5.348368749997462		94479.344060833	94473.34244175	94473.34407300001	94479.34407300001	94473.342446166	94479.343380958	6.0	690.7		3	4	1	2	139	16	700	750	94262.400842166	94262.656494041	94262.836487333	94263.018463458	94263.2114915
94467.99407300001	5.35	0	94472.49407300001	5.348368749997462		94479.344060833	94473.34244175	94473.34407300001	94479.34407300001	94473.342446166	94479.343380958	6.0	712.45		3	4	1	2	139	16	700	750	94262.400842166	94262.656494041	94262.836487333	94263.018463458	94263.2114915
94467.99407300001	5.35	0	94473.24407300001	5.348368749997462		94479.344060833	94473.34244175	94473.34407300001	94479.34407300001	94473.342446166	94479.343380958	6.0	727.97		3	4	1	2	139	16	700	750	94262.400842166	94262.656494041	94262.836487333	94263.018463458	94263.2114915
94479.34999833301	5.35	0	94479.34999833301	5.34824037499493		94489.199991208	94484.698238708	94484.69999833302	94489.19999833302	94484.698244041	94489.199293875	4.5	715.01		3	3	0	2	140	16	700	750	94262.400842166	94262.656494041	94262.836487333	94263.018463458	94263.2114915
94479.34999833301	5.35	0	94480.09999833301	5.34824037499493		94489.199991208	94484.698238708	94484.69999833302	94489.19999833302	94484.698244041	94489.199293875	4.5	708.64		3	3	0	2	140	16	700	750	94262.400842166	94262.656494041	94262.836487333	94263.018463458	94263.2114915
94479.34999833301	5.35	0	94480.84999833301	5.34824037499493		94489.199991208	94484.698238708	94484.69999833302	94489.19999833302	94484.698244041	94489.199293875	4.5	736.3		3	3	0	2	140	16	700	750	94262.400842166	94262.656494041	94262.836487333	94263.018463458	94263.2114915
94479.34999833301	5.35	1	94481.59999833301	5.34824037499493		94489.199991208	94484.698238708	94484.69999833302	94489.19999833302	94484.698244041	94489.199293875	4.5	776.46		3	3	0	2	140	16	700	750	94262.400842166	94262.656494041	94262.836487333	94263.018463458	94263.2114915
94479.34999833301	5.35	0	94482.34999833301	5.34824037499493		94489.199991208	94484.698238708	94484.69999833302	94489.19999833302	94484.698244041	94489.199293875	4.5	708.88		3	3	0	2	140	16	700	750	94262.400842166	94262.656494041	94262.836487333	94263.018463458	94263.2114915
94479.34999833301	5.35	0	94483.09999833301	5.34824037499493		94489.199991208	94484.698238708	94484.69999833302	94489.19999833302	94484.698244041	94489.199293875	4.5	716.14		3	3	0	2	140	16	700	750	94262.400842166	94262.656494041	94262.836487333	94263.018463458	94263.2114915
94479.34999833301	5.35	0	94483.84999833301	5.34824037499493		94489.199991208	94484.698238708	94484.69999833302	94489.19999833302	94484.698244041	94489.199293875	4.5	723.07		3	3	0	2	140	16	700	750	94262.400842166	94262.656494041	94262.836487333	94263.018463458	94263.2114915
94479.34999833301	5.35	0	94484.59999833301	5.34824037499493		94489.199991208	94484.698238708	94484.69999833302	94489.19999833302	94484.698244041	94489.199293875	4.5	701.56		3	3	0	2	140	16	700	750	94262.400842166	94262.656494041	94262.836487333	94263.018463458	94263.2114915
94489.20686620801	5.35	0	94489.20686620801	5.349054166988935		94498.056856708	94494.555920375	94494.55686620802	94498.05686620802	94494.555926333	94498.054992458	3.5	712.26		3	2	0	2	141	16	700	750	94262.400842166	94262.656494041	94262.836487333	94263.018463458	94263.2114915
94489.20686620801	5.35	0	94489.95686620801	5.349054166988935		94498.056856708	94494.555920375	94494.55686620802	94498.05686620802	94494.555926333	94498.054992458	3.5	699.81		3	2	0	2	141	16	700	750	94262.400842166	94262.656494041	94262.836487333	94263.018463458	94263.2114915
94489.20686620801	5.35	1	94490.70686620801	5.349054166988935		94498.056856708	94494.555920375	94494.55686620802	94498.05686620802	94494.555926333	94498.054992458	3.5	742.79		3	2	0	2	141	16	700	750	94262.400842166	94262.656494041	94262.836487333	94263.018463458	94263.2114915
94489.20686620801	5.35	0	94491.45686620801	5.349054166988935		94498.056856708	94494.555920375	94494.55686620802	94498.05686620802	94494.555926333	94498.054992458	3.5	686.06		3	2	0	2	141	16	700	750	94262.400842166	94262.656494041	94262.836487333	94263.018463458	94263.2114915
94489.20686620801	5.35	0	94492.20686620801	5.349054166988935		94498.056856708	94494.555920375	94494.55686620802	94498.05686620802	94494.555926333	94498.054992458	3.5	676.8		3	2	0	2	141	16	700	750	94262.400842166	94262.656494041	94262.836487333	94263.018463458	94263.2114915
94489.20686620801	5.35	0	94492.95686620801	5.349054166988935		94498.056856708	94494.555920375	94494.55686620802	94498.05686620802	94494.555926333	94498.054992458	3.5	690.19		3	2	0	2	141	16	700	750	94262.400842166	94262.656494041	94262.836487333	94263.018463458	94263.2114915
94489.20686620801	5.35	0	94493.70686620801	5.349054166988935		94498.056856708	94494.555920375	94494.55686620802	94498.05686620802	94494.555926333	94498.054992458	3.5	709.3		3	2	0	2	141	16	700	750	94262.400842166	94262.656494041	94262.836487333	94263.018463458	94263.2114915
94489.20686620801	5.35	0	94494.45686620801	5.349054166988935		94498.056856708	94494.555920375	94494.55686620802	94498.05686620802	94494.555926333	94498.054992458	3.5	702.96		3	2	0	2	141	16	700	750	94262.400842166	94262.656494041	94262.836487333	94263.018463458	94263.2114915
94498.06185670801	5.35	0	94498.06185670801	5.348281291997409		94507.411844208	94503.410138	94503.41185670801	94507.41185670801	94503.410145625	94507.409855875	4.0	702.64		3	3	0	2	142	16	700	750	94262.400842166	94262.656494041	94262.836487333	94263.018463458	94263.2114915
94498.06185670801	5.35	0	94498.81185670801	5.348281291997409		94507.411844208	94503.410138	94503.41185670801	94507.41185670801	94503.410145625	94507.409855875	4.0	736.38		3	3	0	2	142	16	700	750	94262.400842166	94262.656494041	94262.836487333	94263.018463458	94263.2114915
94498.06185670801	5.35	0	94499.56185670801	5.348281291997409		94507.411844208	94503.410138	94503.41185670801	94507.41185670801	94503.410145625	94507.409855875	4.0	739.41		3	3	0	2	142	16	700	750	94262.400842166	94262.656494041	94262.836487333	94263.018463458	94263.2114915
94498.06185670801	5.35	1	94500.31185670801	5.348281291997409		94507.411844208	94503.410138	94503.41185670801	94507.41185670801	94503.410145625	94507.409855875	4.0	754.05		3	3	0	2	142	16	700	750	94262.400842166	94262.656494041	94262.836487333	94263.018463458	94263.2114915
94498.06185670801	5.35	0	94501.06185670801	5.348281291997409		94507.411844208	94503.410138	94503.41185670801	94507.41185670801	94503.410145625	94507.409855875	4.0	723.98		3	3	0	2	142	16	700	750	94262.400842166	94262.656494041	94262.836487333	94263.018463458	94263.2114915
94498.06185670801	5.35	0	94501.81185670801	5.348281291997409		94507.411844208	94503.410138	94503.41185670801	94507.41185670801	94503.410145625	94507.409855875	4.0	723.18		3	3	0	2	142	16	700	750	94262.400842166	94262.656494041	94262.836487333	94263.018463458	94263.2114915
94498.06185670801	5.35	0	94502.56185670801	5.348281291997409		94507.411844208	94503.410138	94503.41185670801	94507.41185670801	94503.410145625	94507.409855875	4.0	684.28		3	3	0	2	142	16	700	750	94262.400842166	94262.656494041	94262.836487333	94263.018463458	94263.2114915
94498.06185670801	5.35	0	94503.31185670801	5.348281291997409		94507.411844208	94503.410138	94503.41185670801	94507.41185670801	94503.410145625	94507.409855875	4.0	706.88		3	3	0	2	142	16	700	750	94262.400842166	94262.656494041	94262.836487333	94263.018463458	94263.2114915
94507.417156708	5.35	0	94507.417156708	5.3491542499978095		94520.267136166	94512.766310958	94512.76715670801	94520.26715670801	94512.766316416	94520.266209833	7.5	731.42		3	4	0	2	143	16	700	750	94262.400842166	94262.656494041	94262.836487333	94263.018463458	94263.2114915
94507.417156708	5.35	0	94508.167156708	5.3491542499978095		94520.267136166	94512.766310958	94512.76715670801	94520.26715670801	94512.766316416	94520.266209833	7.5	716.52		3	4	0	2	143	16	700	750	94262.400842166	94262.656494041	94262.836487333	94263.018463458	94263.2114915
94507.417156708	5.35	0	94508.917156708	5.3491542499978095		94520.267136166	94512.766310958	94512.76715670801	94520.26715670801	94512.766316416	94520.266209833	7.5	729.32		3	4	0	2	143	16	700	750	94262.400842166	94262.656494041	94262.836487333	94263.018463458	94263.2114915
94507.417156708	5.35	0	94509.667156708	5.3491542499978095		94520.267136166	94512.766310958	94512.76715670801	94520.26715670801	94512.766316416	94520.266209833	7.5	762.65		3	4	0	2	143	16	700	750	94262.400842166	94262.656494041	94262.836487333	94263.018463458	94263.2114915
94507.417156708	5.35	1	94510.417156708	5.3491542499978095		94520.267136166	94512.766310958	94512.76715670801	94520.26715670801	94512.766316416	94520.266209833	7.5	760.33		3	4	0	2	143	16	700	750	94262.400842166	94262.656494041	94262.836487333	94263.018463458	94263.2114915
94507.417156708	5.35	0	94511.167156708	5.3491542499978095		94520.267136166	94512.766310958	94512.76715670801	94520.26715670801	94512.766316416	94520.266209833	7.5	746.68		3	4	0	2	143	16	700	750	94262.400842166	94262.656494041	94262.836487333	94263.018463458	94263.2114915
94507.417156708	5.35	0	94511.917156708	5.3491542499978095		94520.267136166	94512.766310958	94512.76715670801	94520.26715670801	94512.766316416	94520.266209833	7.5	723.4		3	4	0	2	143	16	700	750	94262.400842166	94262.656494041	94262.836487333	94263.018463458	94263.2114915
94507.417156708	5.35	0	94512.667156708	5.3491542499978095		94520.267136166	94512.766310958	94512.76715670801	94520.26715670801	94512.766316416	94520.266209833	7.5	730.46		3	4	0	2	143	16	700	750	94262.400842166	94262.656494041	94262.836487333	94263.018463458	94263.2114915
94520.273073666	5.35	0	94520.273073666	5.348523459004355		94532.623051666	94525.621597125	94525.623073666	94532.623073666	94525.62160225	94532.622657208	7.0	703.97		3	4	1	2	144	16	700	750	94262.400842166	94262.656494041	94262.836487333	94263.018463458	94263.2114915
94520.273073666	5.35	0	94521.023073666	5.348523459004355		94532.623051666	94525.621597125	94525.623073666	94532.623073666	94525.62160225	94532.622657208	7.0	695.55		3	4	1	2	144	16	700	750	94262.400842166	94262.656494041	94262.836487333	94263.018463458	94263.2114915
94520.273073666	5.35	0	94521.773073666	5.348523459004355		94532.623051666	94525.621597125	94525.623073666	94532.623073666	94525.62160225	94532.622657208	7.0	701.69		3	4	1	2	144	16	700	750	94262.400842166	94262.656494041	94262.836487333	94263.018463458	94263.2114915
94520.273073666	5.35	0	94522.523073666	5.348523459004355		94532.623051666	94525.621597125	94525.623073666	94532.623073666	94525.62160225	94532.622657208	7.0	693.34		3	4	1	2	144	16	700	750	94262.400842166	94262.656494041	94262.836487333	94263.018463458	94263.2114915
94520.273073666	5.35	1	94523.273073666	5.348523459004355		94532.623051666	94525.621597125	94525.623073666	94532.623073666	94525.62160225	94532.622657208	7.0	755.11		3	4	1	2	144	16	700	750	94262.400842166	94262.656494041	94262.836487333	94263.018463458	94263.2114915
94520.273073666	5.35	0	94524.023073666	5.348523459004355		94532.623051666	94525.621597125	94525.623073666	94532.623073666	94525.62160225	94532.622657208	7.0	710.55		3	4	1	2	144	16	700	750	94262.400842166	94262.656494041	94262.836487333	94263.018463458	94263.2114915
94520.273073666	5.35	0	94524.773073666	5.348523459004355		94532.623051666	94525.621597125	94525.623073666	94532.623073666	94525.62160225	94532.622657208	7.0	676.44		3	4	1	2	144	16	700	750	94262.400842166	94262.656494041	94262.836487333	94263.018463458	94263.2114915
94520.273073666	5.35	0	94525.523073666	5.348523459004355		94532.623051666	94525.621597125	94525.623073666	94532.623073666	94525.62160225	94532.622657208	7.0	694.74		3	4	1	2	144	16	700	750	94262.400842166	94262.656494041	94262.836487333	94263.018463458	94263.2114915
94532.62992662501	5.35	0	94532.62992662501	5.34841883298941		94543.479907083	94537.978345458	94537.97992662502	94543.47992662502	94537.978350625	94543.478556166	5.5	714.26		3	4	1	2	145	16	700	750	94262.400842166	94262.656494041	94262.836487333	94263.018463458	94263.2114915
94532.62992662501	5.35	0	94533.37992662501	5.34841883298941		94543.479907083	94537.978345458	94537.97992662502	94543.47992662502	94537.978350625	94543.478556166	5.5	700.15		3	4	1	2	145	16	700	750	94262.400842166	94262.656494041	94262.836487333	94263.018463458	94263.2114915
94532.62992662501	5.35	0	94534.12992662501	5.34841883298941		94543.479907083	94537.978345458	94537.97992662502	94543.47992662502	94537.978350625	94543.478556166	5.5	706.19		3	4	1	2	145	16	700	750	94262.400842166	94262.656494041	94262.836487333	94263.018463458	94263.2114915
94532.62992662501	5.35	0	94534.87992662501	5.34841883298941		94543.479907083	94537.978345458	94537.97992662502	94543.47992662502	94537.978350625	94543.478556166	5.5	701.32		3	4	1	2	145	16	700	750	94262.400842166	94262.656494041	94262.836487333	94263.018463458	94263.2114915
94532.62992662501	5.35	1	94535.62992662501	5.34841883298941		94543.479907083	94537.978345458	94537.97992662502	94543.47992662502	94537.978350625	94543.478556166	5.5	751.93		3	4	1	2	145	16	700	750	94262.400842166	94262.656494041	94262.836487333	94263.018463458	94263.2114915
94532.62992662501	5.35	0	94536.37992662501	5.34841883298941		94543.479907083	94537.978345458	94537.97992662502	94543.47992662502	94537.978350625	94543.478556166	5.5	698.8		3	4	1	2	145	16	700	750	94262.400842166	94262.656494041	94262.836487333	94263.018463458	94263.2114915
94532.62992662501	5.35	0	94537.12992662501	5.34841883298941		94543.479907083	94537.978345458	94537.97992662502	94543.47992662502	94537.978350625	94543.478556166	5.5	703.12		3	4	1	2	145	16	700	750	94262.400842166	94262.656494041	94262.836487333	94263.018463458	94263.2114915
94532.62992662501	5.35	0	94537.87992662501	5.34841883298941		94543.479907083	94537.978345458	94537.97992662502	94543.47992662502	94537.978350625	94543.478556166	5.5	670.74		3	4	1	2	145	16	700	750	94262.400842166	94262.656494041	94262.836487333	94263.018463458	94263.2114915
94543.48490708301	5.35	0	94543.48490708301	5.349664374996792		94553.334887958	94548.834571458	94548.83490708302	94553.33490708302	94548.83457775	94553.333706833	4.5	694.9		3	4	1	2	146	16	700	750	94262.400842166	94262.656494041	94262.836487333	94263.018463458	94263.2114915
94543.48490708301	5.35	0	94544.23490708301	5.349664374996792		94553.334887958	94548.834571458	94548.83490708302	94553.33490708302	94548.83457775	94553.333706833	4.5	694.55		3	4	1	2	146	16	700	750	94262.400842166	94262.656494041	94262.836487333	94263.018463458	94263.2114915
94543.48490708301	5.35	0	94544.98490708301	5.349664374996792		94553.334887958	94548.834571458	94548.83490708302	94553.33490708302	94548.83457775	94553.333706833	4.5	692.49		3	4	1	2	146	16	700	750	94262.400842166	94262.656494041	94262.836487333	94263.018463458	94263.2114915
94543.48490708301	5.35	0	94545.73490708301	5.349664374996792		94553.334887958	94548.834571458	94548.83490708302	94553.33490708302	94548.83457775	94553.333706833	4.5	690.4		3	4	1	2	146	16	700	750	94262.400842166	94262.656494041	94262.836487333	94263.018463458	94263.2114915
94543.48490708301	5.35	1	94546.48490708301	5.349664374996792		94553.334887958	94548.834571458	94548.83490708302	94553.33490708302	94548.83457775	94553.333706833	4.5	742.73		3	4	1	2	146	16	700	750	94262.400842166	94262.656494041	94262.836487333	94263.018463458	94263.2114915
94543.48490708301	5.35	0	94547.23490708301	5.349664374996792		94553.334887958	94548.834571458	94548.83490708302	94553.33490708302	94548.83457775	94553.333706833	4.5	730.45		3	4	1	2	146	16	700	750	94262.400842166	94262.656494041	94262.836487333	94263.018463458	94263.2114915
94543.48490708301	5.35	0	94547.98490708301	5.349664374996792		94553.334887958	94548.834571458	94548.83490708302	94553.33490708302	94548.83457775	94553.333706833	4.5	720.64		3	4	1	2	146	16	700	750	94262.400842166	94262.656494041	94262.836487333	94263.018463458	94263.2114915
94543.48490708301	5.35	0	94548.73490708301	5.349664374996792		94553.334887958	94548.834571458	94548.83490708302	94553.33490708302	94548.83457775	94553.333706833	4.5	704.11		3	4	1	2	146	16	700	750	94262.400842166	94262.656494041	94262.836487333	94263.018463458	94263.2114915
94553.339887958	5.35	0	94553.339887958	5.348146791991894		94563.68986775	94558.68803475	94558.68988795801	94563.68988795801	94558.688040208	94563.689307083	5.0	709.07		3	6	1	2	147	16	700	750	94262.400842166	94262.656494041	94262.836487333	94263.018463458	94263.2114915
94553.339887958	5.35	0	94554.089887958	5.348146791991894		94563.68986775	94558.68803475	94558.68988795801	94563.68988795801	94558.688040208	94563.689307083	5.0	678.09		3	6	1	2	147	16	700	750	94262.400842166	94262.656494041	94262.836487333	94263.018463458	94263.2114915
94553.339887958	5.35	0	94554.839887958	5.348146791991894		94563.68986775	94558.68803475	94558.68988795801	94563.68988795801	94558.688040208	94563.689307083	5.0	677.48		3	6	1	2	147	16	700	750	94262.400842166	94262.656494041	94262.836487333	94263.018463458	94263.2114915
94553.339887958	5.35	0	94555.589887958	5.348146791991894		94563.68986775	94558.68803475	94558.68988795801	94563.68988795801	94558.688040208	94563.689307083	5.0	662.17		3	6	1	2	147	16	700	750	94262.400842166	94262.656494041	94262.836487333	94263.018463458	94263.2114915
94553.339887958	5.35	0	94556.339887958	5.348146791991894		94563.68986775	94558.68803475	94558.68988795801	94563.68988795801	94558.688040208	94563.689307083	5.0	640.74		3	6	1	2	147	16	700	750	94262.400842166	94262.656494041	94262.836487333	94263.018463458	94263.2114915
94553.339887958	5.35	0	94557.089887958	5.348146791991894		94563.68986775	94558.68803475	94558.68988795801	94563.68988795801	94558.688040208	94563.689307083	5.0	663.95		3	6	1	2	147	16	700	750	94262.400842166	94262.656494041	94262.836487333	94263.018463458	94263.2114915
94553.339887958	5.35	1	94557.839887958	5.348146791991894		94563.68986775	94558.68803475	94558.68988795801	94563.68988795801	94558.688040208	94563.689307083	5.0	733.92		3	6	1	2	147	16	700	750	94262.400842166	94262.656494041	94262.836487333	94263.018463458	94263.2114915
94553.339887958	5.35	0	94558.589887958	5.348146791991894		94563.68986775	94558.68803475	94558.68988795801	94563.68988795801	94558.688040208	94563.689307083	5.0	644.24		3	6	1	2	147	16	700	750	94262.400842166	94262.656494041	94262.836487333	94263.018463458	94263.2114915
94563.69643025001	5.35	0	94563.69643025001	5.348246540990658		94573.04641175	94569.044676791	94569.04643025002	94573.04643025002	94569.044685125	94573.04541825	4.0	641.07		3	5	1	2	148	16	700	750	94262.400842166	94262.656494041	94262.836487333	94263.018463458	94263.2114915
94563.69643025001	5.35	0	94564.44643025001	5.348246540990658		94573.04641175	94569.044676791	94569.04643025002	94573.04643025002	94569.044685125	94573.04541825	4.0	654.46		3	5	1	2	148	16	700	750	94262.400842166	94262.656494041	94262.836487333	94263.018463458	94263.2114915
94563.69643025001	5.35	0	94565.19643025001	5.348246540990658		94573.04641175	94569.044676791	94569.04643025002	94573.04643025002	94569.044685125	94573.04541825	4.0	671.3		3	5	1	2	148	16	700	750	94262.400842166	94262.656494041	94262.836487333	94263.018463458	94263.2114915
94563.69643025001	5.35	0	94565.94643025001	5.348246540990658		94573.04641175	94569.044676791	94569.04643025002	94573.04643025002	94569.044685125	94573.04541825	4.0	659.97		3	5	1	2	148	16	700	750	94262.400842166	94262.656494041	94262.836487333	94263.018463458	94263.2114915
94563.69643025001	5.35	0	94566.69643025001	5.348246540990658		94573.04641175	94569.044676791	94569.04643025002	94573.04643025002	94569.044685125	94573.04541825	4.0	676.0		3	5	1	2	148	16	700	750	94262.400842166	94262.656494041	94262.836487333	94263.018463458	94263.2114915
94563.69643025001	5.35	1	94567.44643025001	5.348246540990658		94573.04641175	94569.044676791	94569.04643025002	94573.04643025002	94569.044685125	94573.04541825	4.0	747.16		3	5	1	2	148	16	700	750	94262.400842166	94262.656494041	94262.836487333	94263.018463458	94263.2114915
94563.69643025001	5.35	0	94568.19643025001	5.348246540990658		94573.04641175	94569.044676791	94569.04643025002	94573.04643025002	94569.044685125	94573.04541825	4.0	695.92		3	5	1	2	148	16	700	750	94262.400842166	94262.656494041	94262.836487333	94263.018463458	94263.2114915
94563.69643025001	5.35	0	94568.94643025001	5.348246540990658		94573.04641175	94569.044676791	94569.04643025002	94573.04643025002	94569.044685125	94573.04541825	4.0	663.98		3	5	1	2	148	16	700	750	94262.400842166	94262.656494041	94262.836487333	94263.018463458	94263.2114915
94573.05266175	5.35	0	94573.05266175	5.348210291005671		94584.902636083	94578.400872041	94578.40266175	94584.90266175	94578.400877541	94584.90143975	6.5	657.73		3	3	0	2	149	16	700	750	94262.400842166	94262.656494041	94262.836487333	94263.018463458	94263.2114915
94573.05266175	5.35	0	94573.80266175	5.348210291005671		94584.902636083	94578.400872041	94578.40266175	94584.90266175	94578.400877541	94584.90143975	6.5	665.52		3	3	0	2	149	16	700	750	94262.400842166	94262.656494041	94262.836487333	94263.018463458	94263.2114915
94573.05266175	5.35	0	94574.55266175	5.348210291005671		94584.902636083	94578.400872041	94578.40266175	94584.90266175	94578.400877541	94584.90143975	6.5	667.65		3	3	0	2	149	16	700	750	94262.400842166	94262.656494041	94262.836487333	94263.018463458	94263.2114915
94573.05266175	5.35	1	94575.30266175	5.348210291005671		94584.902636083	94578.400872041	94578.40266175	94584.90266175	94578.400877541	94584.90143975	6.5	757.68		3	3	0	2	149	16	700	750	94262.400842166	94262.656494041	94262.836487333	94263.018463458	94263.2114915
94573.05266175	5.35	0	94576.05266175	5.348210291005671		94584.902636083	94578.400872041	94578.40266175	94584.90266175	94578.400877541	94584.90143975	6.5	660.72		3	3	0	2	149	16	700	750	94262.400842166	94262.656494041	94262.836487333	94263.018463458	94263.2114915
94573.05266175	5.35	0	94576.80266175	5.348210291005671		94584.902636083	94578.400872041	94578.40266175	94584.90266175	94578.400877541	94584.90143975	6.5	645.46		3	3	0	2	149	16	700	750	94262.400842166	94262.656494041	94262.836487333	94263.018463458	94263.2114915
94573.05266175	5.35	0	94577.55266175	5.348210291005671		94584.902636083	94578.400872041	94578.40266175	94584.90266175	94578.400877541	94584.90143975	6.5	656.86		3	3	0	2	149	16	700	750	94262.400842166	94262.656494041	94262.836487333	94263.018463458	94263.2114915
94573.05266175	5.35	0	94578.30266175	5.348210291005671		94584.902636083	94578.400872041	94578.40266175	94584.90266175	94578.400877541	94584.90143975	6.5	669.81		3	3	0	2	149	16	700	750	94262.400842166	94262.656494041	94262.836487333	94263.018463458	94263.2114915
94584.908573583	5.35	0	94584.908573583	5.349591749996762		94594.258553041	94590.258165333	94590.258573583	94594.258573583	94590.258171083	94594.257610208	4.0	659.98		3	4	0	2	150	16	700	750	94262.400842166	94262.656494041	94262.836487333	94263.018463458	94263.2114915
94584.908573583	5.35	0	94585.658573583	5.349591749996762		94594.258553041	94590.258165333	94590.258573583	94594.258573583	94590.258171083	94594.257610208	4.0	632.8		3	4	0	2	150	16	700	750	94262.400842166	94262.656494041	94262.836487333	94263.018463458	94263.2114915
94584.908573583	5.35	0	94586.408573583	5.349591749996762		94594.258553041	94590.258165333	94590.258573583	94594.258573583	94590.258171083	94594.257610208	4.0	678.05		3	4	0	2	150	16	700	750	94262.400842166	94262.656494041	94262.836487333	94263.018463458	94263.2114915
94584.908573583	5.35	0	94587.158573583	5.349591749996762		94594.258553041	94590.258165333	94590.258573583	94594.258573583	94590.258171083	94594.257610208	4.0	656.87		3	4	0	2	150	16	700	750	94262.400842166	94262.656494041	94262.836487333	94263.018463458	94263.2114915
94584.908573583	5.35	1	94587.908573583	5.349591749996762		94594.258553041	94590.258165333	94590.258573583	94594.258573583	94590.258171083	94594.257610208	4.0	766.82		3	4	0	2	150	16	700	750	94262.400842166	94262.656494041	94262.836487333	94263.018463458	94263.2114915
94584.908573583	5.35	0	94588.658573583	5.349591749996762		94594.258553041	94590.258165333	94590.258573583	94594.258573583	94590.258171083	94594.257610208	4.0	662.15		3	4	0	2	150	16	700	750	94262.400842166	94262.656494041	94262.836487333	94263.018463458	94263.2114915
94584.908573583	5.35	0	94589.408573583	5.349591749996762		94594.258553041	94590.258165333	94590.258573583	94594.258573583	94590.258171083	94594.257610208	4.0	656.67		3	4	0	2	150	16	700	750	94262.400842166	94262.656494041	94262.836487333	94263.018463458	94263.2114915
94584.908573583	5.35	0	94590.158573583	5.349591749996762		94594.258553041	94590.258165333	94590.258573583	94594.258573583	94590.258171083	94594.257610208	4.0	654.45		3	4	0	2	150	16	700	750	94262.400842166	94262.656494041	94262.836487333	94263.018463458	94263.2114915
94594.264803041	5.35	0	94594.264803041	5.344519541991758		94604.61477925	94599.609322583	94599.61480304101	94604.61480304101	94599.609328	94604.612107916	5.0	650.79		3	3	0	2	151	16	700	750	94262.400842166	94262.656494041	94262.836487333	94263.018463458	94263.2114915
94594.264803041	5.35	0	94595.014803041	5.344519541991758		94604.61477925	94599.609322583	94599.61480304101	94604.61480304101	94599.609328	94604.612107916	5.0	646.17		3	3	0	2	151	16	700	750	94262.400842166	94262.656494041	94262.836487333	94263.018463458	94263.2114915
94594.264803041	5.35	0	94595.764803041	5.344519541991758		94604.61477925	94599.609322583	94599.61480304101	94604.61480304101	94599.609328	94604.612107916	5.0	626.78		3	3	0	2	151	16	700	750	94262.400842166	94262.656494041	94262.836487333	94263.018463458	94263.2114915
94594.264803041	5.35	1	94596.514803041	5.344519541991758		94604.61477925	94599.609322583	94599.61480304101	94604.61480304101	94599.609328	94604.612107916	5.0	746.1		3	3	0	2	151	16	700	750	94262.400842166	94262.656494041	94262.836487333	94263.018463458	94263.2114915
94594.264803041	5.35	0	94597.264803041	5.344519541991758		94604.61477925	94599.609322583	94599.61480304101	94604.61480304101	94599.609328	94604.612107916	5.0	680.31		3	3	0	2	151	16	700	750	94262.400842166	94262.656494041	94262.836487333	94263.018463458	94263.2114915
94594.264803041	5.35	0	94598.014803041	5.344519541991758		94604.61477925	94599.609322583	94599.61480304101	94604.61480304101	94599.609328	94604.612107916	5.0	653.09		3	3	0	2	151	16	700	750	94262.400842166	94262.656494041	94262.836487333	94263.018463458	94263.2114915
94594.264803041	5.35	0	94598.764803041	5.344519541991758		94604.61477925	94599.609322583	94599.61480304101	94604.61480304101	94599.609328	94604.612107916	5.0	663.96		3	3	0	2	151	16	700	750	94262.400842166	94262.656494041	94262.836487333	94263.018463458	94263.2114915
94594.264803041	5.35	0	94599.514803041	5.344519541991758		94604.61477925	94599.609322583	94599.61480304101	94604.61480304101	94599.609328	94604.612107916	5.0	655.17		3	3	0	2	151	16	700	750	94262.400842166	94262.656494041	94262.836487333	94263.018463458	94263.2114915
94604.62040425	5.35	0	94604.62040425	5.349571500002639		94613.470383458	94609.96997575	94609.97040425001	94613.47040425001	94609.969980875	94613.469422583	3.5	664.69		3	3	0	2	152	16	700	750	94262.400842166	94262.656494041	94262.836487333	94263.018463458	94263.2114915
94604.62040425	5.35	0	94605.37040425	5.349571500002639		94613.470383458	94609.96997575	94609.97040425001	94613.47040425001	94609.969980875	94613.469422583	3.5	658.23		3	3	0	2	152	16	700	750	94262.400842166	94262.656494041	94262.836487333	94263.018463458	94263.2114915
94604.62040425	5.35	0	94606.12040425	5.349571500002639		94613.470383458	94609.96997575	94609.97040425001	94613.47040425001	94609.969980875	94613.469422583	3.5	662.59		3	3	0	2	152	16	700	750	94262.400842166	94262.656494041	94262.836487333	94263.018463458	94263.2114915
94604.62040425	5.35	1	94606.87040425	5.349571500002639		94613.470383458	94609.96997575	94609.97040425001	94613.47040425001	94609.969980875	94613.469422583	3.5	770.41		3	3	0	2	152	16	700	750	94262.400842166	94262.656494041	94262.836487333	94263.018463458	94263.2114915
94604.62040425	5.35	0	94607.62040425	5.349571500002639		94613.470383458	94609.96997575	94609.97040425001	94613.47040425001	94609.969980875	94613.469422583	3.5	655.24		3	3	0	2	152	16	700	750	94262.400842166	94262.656494041	94262.836487333	94263.018463458	94263.2114915
94604.62040425	5.35	0	94608.37040425	5.349571500002639		94613.470383458	94609.96997575	94609.97040425001	94613.47040425001	94609.969980875	94613.469422583	3.5	667.84		3	3	0	2	152	16	700	750	94262.400842166	94262.656494041	94262.836487333	94263.018463458	94263.2114915
94604.62040425	5.35	0	94609.12040425	5.349571500002639		94613.470383458	94609.96997575	94609.97040425001	94613.47040425001	94609.969980875	94613.469422583	3.5	674.32		3	3	0	2	152	16	700	750	94262.400842166	94262.656494041	94262.836487333	94263.018463458	94263.2114915
94604.62040425	5.35	0	94609.87040425	5.349571500002639		94613.470383458	94609.96997575	94609.97040425001	94613.47040425001	94609.969980875	94613.469422583	3.5	700.11		3	3	0	2	152	16	700	750	94262.400842166	94262.656494041	94262.836487333	94263.018463458	94263.2114915
94613.47538341601	5.35	0	94613.47538341601	5.349980624989257		94621.825364041	94618.825364041	94618.82538341601	94621.82538341601	94618.8253695	94621.823216541	3.0	725.12		3	4	0	2	153	16	700	750	94262.400842166	94262.656494041	94262.836487333	94263.018463458	94263.2114915
94613.47538341601	5.35	0	94614.22538341601	5.349980624989257		94621.825364041	94618.825364041	94618.82538341601	94621.82538341601	94618.8253695	94621.823216541	3.0	711.38		3	4	0	2	153	16	700	750	94262.400842166	94262.656494041	94262.836487333	94263.018463458	94263.2114915
94613.47538341601	5.35	0	94614.97538341601	5.349980624989257		94621.825364041	94618.825364041	94618.82538341601	94621.82538341601	94618.8253695	94621.823216541	3.0	725.38		3	4	0	2	153	16	700	750	94262.400842166	94262.656494041	94262.836487333	94263.018463458	94263.2114915
94613.47538341601	5.35	0	94615.72538341601	5.349980624989257		94621.825364041	94618.825364041	94618.82538341601	94621.82538341601	94618.8253695	94621.823216541	3.0	690.78		3	4	0	2	153	16	700	750	94262.400842166	94262.656494041	94262.836487333	94263.018463458	94263.2114915
94613.47538341601	5.35	1	94616.47538341601	5.349980624989257		94621.825364041	94618.825364041	94618.82538341601	94621.82538341601	94618.8253695	94621.823216541	3.0	767.52		3	4	0	2	153	16	700	750	94262.400842166	94262.656494041	94262.836487333	94263.018463458	94263.2114915
94613.47538341601	5.35	0	94617.22538341601	5.349980624989257		94621.825364041	94618.825364041	94618.82538341601	94621.82538341601	94618.8253695	94621.823216541	3.0	682.97		3	4	0	2	153	16	700	750	94262.400842166	94262.656494041	94262.836487333	94263.018463458	94263.2114915
94613.47538341601	5.35	0	94617.97538341601	5.349980624989257		94621.825364041	94618.825364041	94618.82538341601	94621.82538341601	94618.8253695	94621.823216541	3.0	679.16		3	4	0	2	153	16	700	750	94262.400842166	94262.656494041	94262.836487333	94263.018463458	94263.2114915
94613.47538341601	5.35	0	94618.72538341601	5.349980624989257		94621.825364041	94618.825364041	94618.82538341601	94621.82538341601	94618.8253695	94621.823216541	3.0	691.9		3	4	0	2	153	16	700	750	94262.400842166	94262.656494041	94262.836487333	94263.018463458	94263.2114915
94621.83192654101	5.35	0	94621.83192654101	5.349639583990211		94634.181897083	94627.181566125	94627.18192654102	94634.18192654102	94627.181572125	94634.181641708	7.0	672.12		3	4	0	2	154	16	700	750	94262.400842166	94262.656494041	94262.836487333	94263.018463458	94263.2114915
94621.83192654101	5.35	0	94622.58192654101	5.349639583990211		94634.181897083	94627.181566125	94627.18192654102	94634.18192654102	94627.181572125	94634.181641708	7.0	686.6		3	4	0	2	154	16	700	750	94262.400842166	94262.656494041	94262.836487333	94263.018463458	94263.2114915
94621.83192654101	5.35	0	94623.33192654101	5.349639583990211		94634.181897083	94627.181566125	94627.18192654102	94634.18192654102	94627.181572125	94634.181641708	7.0	711.7		3	4	0	2	154	16	700	750	94262.400842166	94262.656494041	94262.836487333	94263.018463458	94263.2114915
94621.83192654101	5.35	0	94624.08192654101	5.349639583990211		94634.181897083	94627.181566125	94627.18192654102	94634.18192654102	94627.181572125	94634.181641708	7.0	697.0		3	4	0	2	154	16	700	750	94262.400842166	94262.656494041	94262.836487333	94263.018463458	94263.2114915
94621.83192654101	5.35	1	94624.83192654101	5.349639583990211		94634.181897083	94627.181566125	94627.18192654102	94634.18192654102	94627.181572125	94634.181641708	7.0	722.9		3	4	0	2	154	16	700	750	94262.400842166	94262.656494041	94262.836487333	94263.018463458	94263.2114915
94621.83192654101	5.35	0	94625.58192654101	5.349639583990211		94634.181897083	94627.181566125	94627.18192654102	94634.18192654102	94627.181572125	94634.181641708	7.0	685.04		3	4	0	2	154	16	700	750	94262.400842166	94262.656494041	94262.836487333	94263.018463458	94263.2114915
94621.83192654101	5.35	0	94626.33192654101	5.349639583990211		94634.181897083	94627.181566125	94627.18192654102	94634.18192654102	94627.181572125	94634.181641708	7.0	669.43		3	4	0	2	154	16	700	750	94262.400842166	94262.656494041	94262.836487333	94263.018463458	94263.2114915
94621.83192654101	5.35	0	94627.08192654101	5.349639583990211		94634.181897083	94627.181566125	94627.18192654102	94634.18192654102	94627.181572125	94634.181641708	7.0	641.76		3	4	0	2	154	16	700	750	94262.400842166	94262.656494041	94262.836487333	94263.018463458	94263.2114915
94634.186584583	5.35	0	94634.186584583	5.344118791996152		94646.536556583	94639.530703375	94639.53658458301	94646.53658458301	94639.530709083	94646.5305285	7.0	667.48		3	4	0	2	155	16	700	750	94262.400842166	94262.656494041	94262.836487333	94263.018463458	94263.2114915
94634.186584583	5.35	0	94634.936584583	5.344118791996152		94646.536556583	94639.530703375	94639.53658458301	94646.53658458301	94639.530709083	94646.5305285	7.0	641.39		3	4	0	2	155	16	700	750	94262.400842166	94262.656494041	94262.836487333	94263.018463458	94263.2114915
94634.186584583	5.35	0	94635.686584583	5.344118791996152		94646.536556583	94639.530703375	94639.53658458301	94646.53658458301	94639.530709083	94646.5305285	7.0	654.9		3	4	0	2	155	16	700	750	94262.400842166	94262.656494041	94262.836487333	94263.018463458	94263.2114915
94634.186584583	5.35	0	94636.436584583	5.344118791996152		94646.536556583	94639.530703375	94639.53658458301	94646.53658458301	94639.530709083	94646.5305285	7.0	663.97		3	4	0	2	155	16	700	750	94262.400842166	94262.656494041	94262.836487333	94263.018463458	94263.2114915
94634.186584583	5.35	1	94637.186584583	5.344118791996152		94646.536556583	94639.530703375	94639.53658458301	94646.53658458301	94639.530709083	94646.5305285	7.0	757.79		3	4	0	2	155	16	700	750	94262.400842166	94262.656494041	94262.836487333	94263.018463458	94263.2114915
94634.186584583	5.35	0	94637.936584583	5.344118791996152		94646.536556583	94639.530703375	94639.53658458301	94646.53658458301	94639.530709083	94646.5305285	7.0	669.28		3	4	0	2	155	16	700	750	94262.400842166	94262.656494041	94262.836487333	94263.018463458	94263.2114915
94634.186584583	5.35	0	94638.686584583	5.344118791996152		94646.536556583	94639.530703375	94639.53658458301	94646.53658458301	94639.530709083	94646.5305285	7.0	673.15		3	4	0	2	155	16	700	750	94262.400842166	94262.656494041	94262.836487333	94263.018463458	94263.2114915
94634.186584583	5.35	0	94639.436584583	5.344118791996152		94646.536556583	94639.530703375	94639.53658458301	94646.53658458301	94639.530709083	94646.5305285	7.0	674.29		3	4	0	2	155	16	700	750	94262.400842166	94262.656494041	94262.836487333	94263.018463458	94263.2114915
94646.549994083	5.35	0	94646.549994083	5.347777832997963		94657.399967208	94651.897771916	94651.89999408301	94657.39999408301	94651.897777541	94657.397153416	5.5	659.33		3	2	0	2	156	16	700	750	94262.400842166	94262.656494041	94262.836487333	94263.018463458	94263.2114915
94646.549994083	5.35	0	94647.299994083	5.347777832997963		94657.399967208	94651.897771916	94651.89999408301	94657.39999408301	94651.897777541	94657.397153416	5.5	655.02		3	2	0	2	156	16	700	750	94262.400842166	94262.656494041	94262.836487333	94263.018463458	94263.2114915
94646.549994083	5.35	1	94648.049994083	5.347777832997963		94657.399967208	94651.897771916	94651.89999408301	94657.39999408301	94651.897777541	94657.397153416	5.5	768.17		3	2	0	2	156	16	700	750	94262.400842166	94262.656494041	94262.836487333	94263.018463458	94263.2114915
94646.549994083	5.35	0	94648.799994083	5.347777832997963		94657.399967208	94651.897771916	94651.89999408301	94657.39999408301	94651.897777541	94657.397153416	5.5	680.23		3	2	0	2	156	16	700	750	94262.400842166	94262.656494041	94262.836487333	94263.018463458	94263.2114915
94646.549994083	5.35	0	94649.549994083	5.347777832997963		94657.399967208	94651.897771916	94651.89999408301	94657.39999408301	94651.897777541	94657.397153416	5.5	695.28		3	2	0	2	156	16	700	750	94262.400842166	94262.656494041	94262.836487333	94263.018463458	94263.2114915
94646.549994083	5.35	0	94650.299994083	5.347777832997963		94657.399967208	94651.897771916	94651.89999408301	94657.39999408301	94651.897777541	94657.397153416	5.5	685.5		3	2	0	2	156	16	700	750	94262.400842166	94262.656494041	94262.836487333	94263.018463458	94263.2114915
94646.549994083	5.35	0	94651.049994083	5.347777832997963		94657.399967208	94651.897771916	94651.89999408301	94657.39999408301	94651.897777541	94657.397153416	5.5	708.18		3	2	0	2	156	16	700	750	94262.400842166	94262.656494041	94262.836487333	94263.018463458	94263.2114915
94646.549994083	5.35	0	94651.799994083	5.347777832997963		94657.399967208	94651.897771916	94651.89999408301	94657.39999408301	94651.897777541	94657.397153416	5.5	696.32		3	2	0	2	156	16	700	750	94262.400842166	94262.656494041	94262.836487333	94263.018463458	94263.2114915
94657.41684220801	5.35	0	94657.41684220801	5.347094374985318		94666.266818208	94662.763936583	94662.76684220802	94666.26684220802	94662.763941708	94666.263584	3.5	691.01		3	6	1	2	157	16	700	750	94262.400842166	94262.656494041	94262.836487333	94263.018463458	94263.2114915
94657.41684220801	5.35	0	94658.16684220801	5.347094374985318		94666.266818208	94662.763936583	94662.76684220802	94666.26684220802	94662.763941708	94666.263584	3.5	689.6		3	6	1	2	157	16	700	750	94262.400842166	94262.656494041	94262.836487333	94263.018463458	94263.2114915
94657.41684220801	5.35	0	94658.91684220801	5.347094374985318		94666.266818208	94662.763936583	94662.76684220802	94666.26684220802	94662.763941708	94666.263584	3.5	667.44		3	6	1	2	157	16	700	750	94262.400842166	94262.656494041	94262.836487333	94263.018463458	94263.2114915
94657.41684220801	5.35	0	94659.66684220801	5.347094374985318		94666.266818208	94662.763936583	94662.76684220802	94666.26684220802	94662.763941708	94666.263584	3.5	675.78		3	6	1	2	157	16	700	750	94262.400842166	94262.656494041	94262.836487333	94263.018463458	94263.2114915
94657.41684220801	5.35	0	94660.41684220801	5.347094374985318		94666.266818208	94662.763936583	94662.76684220802	94666.26684220802	94662.763941708	94666.263584	3.5	658.0		3	6	1	2	157	16	700	750	94262.400842166	94262.656494041	94262.836487333	94263.018463458	94263.2114915
94657.41684220801	5.35	0	94661.16684220801	5.347094374985318		94666.266818208	94662.763936583	94662.76684220802	94666.26684220802	94662.763941708	94666.263584	3.5	662.23		3	6	1	2	157	16	700	750	94262.400842166	94262.656494041	94262.836487333	94263.018463458	94263.2114915
94657.41684220801	5.35	1	94661.91684220801	5.347094374985318		94666.266818208	94662.763936583	94662.76684220802	94666.26684220802	94662.763941708	94666.263584	3.5	780.79		3	6	1	2	157	16	700	750	94262.400842166	94262.656494041	94262.836487333	94263.018463458	94263.2114915
94657.41684220801	5.35	0	94662.66684220801	5.347094374985318		94666.266818208	94662.763936583	94662.76684220802	94666.26684220802	94662.763941708	94666.263584	3.5	665.7		3	6	1	2	157	16	700	750	94262.400842166	94262.656494041	94262.836487333	94263.018463458	94263.2114915
94666.28369316601	5.35	0	94666.28369316601	5.3482074169878615		94675.1336695	94671.631900583	94671.63369316602	94675.13369316602	94671.631907083	94675.132564666	3.5	691.45		3	4	1	2	158	16	700	750	94262.400842166	94262.656494041	94262.836487333	94263.018463458	94263.2114915
94666.28369316601	5.35	0	94667.03369316601	5.3482074169878615		94675.1336695	94671.631900583	94671.63369316602	94675.13369316602	94671.631907083	94675.132564666	3.5	706.69		3	4	1	2	158	16	700	750	94262.400842166	94262.656494041	94262.836487333	94263.018463458	94263.2114915
94666.28369316601	5.35	0	94667.78369316601	5.3482074169878615		94675.1336695	94671.631900583	94671.63369316602	94675.13369316602	94671.631907083	94675.132564666	3.5	679.17		3	4	1	2	158	16	700	750	94262.400842166	94262.656494041	94262.836487333	94263.018463458	94263.2114915
94666.28369316601	5.35	0	94668.53369316601	5.3482074169878615		94675.1336695	94671.631900583	94671.63369316602	94675.13369316602	94671.631907083	94675.132564666	3.5	687.41		3	4	1	2	158	16	700	750	94262.400842166	94262.656494041	94262.836487333	94263.018463458	94263.2114915
94666.28369316601	5.35	1	94669.28369316601	5.3482074169878615		94675.1336695	94671.631900583	94671.63369316602	94675.13369316602	94671.631907083	94675.132564666	3.5	767.25		3	4	1	2	158	16	700	750	94262.400842166	94262.656494041	94262.836487333	94263.018463458	94263.2114915
94666.28369316601	5.35	0	94670.03369316601	5.3482074169878615		94675.1336695	94671.631900583	94671.63369316602	94675.13369316602	94671.631907083	94675.132564666	3.5	668.24		3	4	1	2	158	16	700	750	94262.400842166	94262.656494041	94262.836487333	94263.018463458	94263.2114915
94666.28369316601	5.35	0	94670.78369316601	5.3482074169878615		94675.1336695	94671.631900583	94671.63369316602	94675.13369316602	94671.631907083	94675.132564666	3.5	669.12		3	4	1	2	158	16	700	750	94262.400842166	94262.656494041	94262.836487333	94263.018463458	94263.2114915
94666.28369316601	5.35	0	94671.53369316601	5.3482074169878615		94675.1336695	94671.631900583	94671.63369316602	94675.13369316602	94671.631907083	94675.132564666	3.5	664.02		3	4	1	2	158	16	700	750	94262.400842166	94262.656494041	94262.836487333	94263.018463458	94263.2114915
94675.15054445801	5.35	0	94675.15054445801	5.345113166986266		94685.50051875	94680.495657625	94680.50054445802	94685.50054445802	94680.495662833	94685.495684458	5.0	662.93		3	3	0	2	159	16	700	750	94262.400842166	94262.656494041	94262.836487333	94263.018463458	94263.2114915
94675.15054445801	5.35	0	94675.90054445801	5.345113166986266		94685.50051875	94680.495657625	94680.50054445802	94685.50054445802	94680.495662833	94685.495684458	5.0	676.61		3	3	0	2	159	16	700	750	94262.400842166	94262.656494041	94262.836487333	94263.018463458	94263.2114915
94675.15054445801	5.35	0	94676.65054445801	5.345113166986266		94685.50051875	94680.495657625	94680.50054445802	94685.50054445802	94680.495662833	94685.495684458	5.0	672.05		3	3	0	2	159	16	700	750	94262.400842166	94262.656494041	94262.836487333	94263.018463458	94263.2114915
94675.15054445801	5.35	1	94677.40054445801	5.345113166986266		94685.50051875	94680.495657625	94680.50054445802	94685.50054445802	94680.495662833	94685.495684458	5.0	766.2		3	3	0	2	159	16	700	750	94262.400842166	94262.656494041	94262.836487333	94263.018463458	94263.2114915
94675.15054445801	5.35	0	94678.15054445801	5.345113166986266		94685.50051875	94680.495657625	94680.50054445802	94685.50054445802	94680.495662833	94685.495684458	5.0	687.44		3	3	0	2	159	16	700	750	94262.400842166	94262.656494041	94262.836487333	94263.018463458	94263.2114915
94675.15054445801	5.35	0	94678.90054445801	5.345113166986266		94685.50051875	94680.495657625	94680.50054445802	94685.50054445802	94680.495662833	94685.495684458	5.0	667.59		3	3	0	2	159	16	700	750	94262.400842166	94262.656494041	94262.836487333	94263.018463458	94263.2114915
94675.15054445801	5.35	0	94679.65054445801	5.345113166986266		94685.50051875	94680.495657625	94680.50054445802	94685.50054445802	94680.495662833	94685.495684458	5.0	704.07		3	3	0	2	159	16	700	750	94262.400842166	94262.656494041	94262.836487333	94263.018463458	94263.2114915
94675.15054445801	5.35	0	94680.40054445801	5.345113166986266		94685.50051875	94680.495657625	94680.50054445802	94685.50054445802	94680.495662833	94685.495684458	5.0	656.22		3	3	0	2	159	16	700	750	94262.400842166	94262.656494041	94262.836487333	94263.018463458	94263.2114915
94685.516456208	5.35	0	94685.516456208	5.345617667000624		94695.366435958	94690.862073875	94690.86645620801	94695.36645620801	94690.86207825	94695.362135291	4.5	665.79		3	4	0	2	160	16	700	750	94262.400842166	94262.656494041	94262.836487333	94263.018463458	94263.2114915
94685.516456208	5.35	0	94686.266456208	5.345617667000624		94695.366435958	94690.862073875	94690.86645620801	94695.36645620801	94690.86207825	94695.362135291	4.5	669.36		3	4	0	2	160	16	700	750	94262.400842166	94262.656494041	94262.836487333	94263.018463458	94263.2114915
94685.516456208	5.35	0	94687.016456208	5.345617667000624		94695.366435958	94690.862073875	94690.86645620801	94695.36645620801	94690.86207825	94695.362135291	4.5	679.83		3	4	0	2	160	16	700	750	94262.400842166	94262.656494041	94262.836487333	94263.018463458	94263.2114915
94685.516456208	5.35	0	94687.766456208	5.345617667000624		94695.366435958	94690.862073875	94690.86645620801	94695.36645620801	94690.86207825	94695.362135291	4.5	687.2		3	4	0	2	160	16	700	750	94262.400842166	94262.656494041	94262.836487333	94263.018463458	94263.2114915
94685.516456208	5.35	1	94688.516456208	5.345617667000624		94695.366435958	94690.862073875	94690.86645620801	94695.36645620801	94690.86207825	94695.362135291	4.5	755.18		3	4	0	2	160	16	700	750	94262.400842166	94262.656494041	94262.836487333	94263.018463458	94263.2114915
94685.516456208	5.35	0	94689.266456208	5.345617667000624		94695.366435958	94690.862073875	94690.86645620801	94695.36645620801	94690.86207825	94695.362135291	4.5	697.99		3	4	0	2	160	16	700	750	94262.400842166	94262.656494041	94262.836487333	94263.018463458	94263.2114915
94685.516456208	5.35	0	94690.016456208	5.345617667000624		94695.366435958	94690.862073875	94690.86645620801	94695.36645620801	94690.86207825	94695.362135291	4.5	717.91		3	4	0	2	160	16	700	750	94262.400842166	94262.656494041	94262.836487333	94263.018463458	94263.2114915
94685.516456208	5.35	0	94690.766456208	5.345617667000624		94695.366435958	94690.862073875	94690.86645620801	94695.36645620801	94690.86207825	94695.362135291	4.5	747.18		3	4	0	2	160	16	700	750	94262.400842166	94262.656494041	94262.836487333	94263.018463458	94263.2114915
94695.38174841601	5.35	0	94695.38174841601	5.34725387499202		94706.231730375	94700.729002291	94700.73174841602	94706.23174841602	94700.729007291	94706.2286005	5.5	753.75		3	4	0	2	161	16	700	750	94262.400842166	94262.656494041	94262.836487333	94263.018463458	94263.2114915
94695.38174841601	5.35	0	94696.13174841601	5.34725387499202		94706.231730375	94700.729002291	94700.73174841602	94706.23174841602	94700.729007291	94706.2286005	5.5	751.62		3	4	0	2	161	16	700	750	94262.400842166	94262.656494041	94262.836487333	94263.018463458	94263.2114915
94695.38174841601	5.35	0	94696.88174841601	5.34725387499202		94706.231730375	94700.729002291	94700.73174841602	94706.23174841602	94700.729007291	94706.2286005	5.5	740.25		3	4	0	2	161	16	700	750	94262.400842166	94262.656494041	94262.836487333	94263.018463458	94263.2114915
94695.38174841601	5.35	0	94697.63174841601	5.34725387499202		94706.231730375	94700.729002291	94700.73174841602	94706.23174841602	94700.729007291	94706.2286005	5.5	740.04		3	4	0	2	161	16	700	750	94262.400842166	94262.656494041	94262.836487333	94263.018463458	94263.2114915
94695.38174841601	5.35	1	94698.38174841601	5.34725387499202		94706.231730375	94700.729002291	94700.73174841602	94706.23174841602	94700.729007291	94706.2286005	5.5	746.51		3	4	0	2	161	16	700	750	94262.400842166	94262.656494041	94262.836487333	94263.018463458	94263.2114915
94695.38174841601	5.35	0	94699.13174841601	5.34725387499202		94706.231730375	94700.729002291	94700.73174841602	94706.23174841602	94700.729007291	94706.2286005	5.5	708.96		3	4	0	2	161	16	700	750	94262.400842166	94262.656494041	94262.836487333	94263.018463458	94263.2114915
94695.38174841601	5.35	0	94699.88174841601	5.34725387499202		94706.231730375	94700.729002291	94700.73174841602	94706.23174841602	94700.729007291	94706.2286005	5.5	713.44		3	4	0	2	161	16	700	750	94262.400842166	94262.656494041	94262.836487333	94263.018463458	94263.2114915
94695.38174841601	5.35	0	94700.63174841601	5.34725387499202		94706.231730375	94700.729002291	94700.73174841602	94706.23174841602	94700.729007291	94706.2286005	5.5	725.18		3	4	0	2	161	16	700	750	94262.400842166	94262.656494041	94262.836487333	94263.018463458	94263.2114915
94706.24860545801	5.35	0	94706.24860545801	5.349624624985154		94714.598592208	94711.598230083	94711.59860545801	94714.59860545801	94711.598236375	94714.593404	3.0	719.79		4	0	2	2	162	16	700	750	94262.400842166	94262.656494041	94262.836487333	94263.018463458	94263.2114915
94706.24860545801	5.35	0	94706.99860545801	5.349624624985154		94714.598592208	94711.598230083	94711.59860545801	94714.59860545801	94711.598236375	94714.593404	3.0	732.27		4	0	2	2	162	16	700	750	94262.400842166	94262.656494041	94262.836487333	94263.018463458	94263.2114915
94706.24860545801	5.35	0	94707.74860545801	5.349624624985154		94714.598592208	94711.598230083	94711.59860545801	94714.59860545801	94711.598236375	94714.593404	3.0	761.23		4	0	2	2	162	16	700	750	94262.400842166	94262.656494041	94262.836487333	94263.018463458	94263.2114915
94706.24860545801	5.35	0	94708.49860545801	5.349624624985154		94714.598592208	94711.598230083	94711.59860545801	94714.59860545801	94711.598236375	94714.593404	3.0	741.55		4	0	2	2	162	16	700	750	94262.400842166	94262.656494041	94262.836487333	94263.018463458	94263.2114915
94706.24860545801	5.35	0	94709.24860545801	5.349624624985154		94714.598592208	94711.598230083	94711.59860545801	94714.59860545801	94711.598236375	94714.593404	3.0	745.89		4	0	2	2	162	16	700	750	94262.400842166	94262.656494041	94262.836487333	94263.018463458	94263.2114915
94706.24860545801	5.35	0	94709.99860545801	5.349624624985154		94714.598592208	94711.598230083	94711.59860545801	94714.59860545801	94711.598236375	94714.593404	3.0	744.37		4	0	2	2	162	16	700	750	94262.400842166	94262.656494041	94262.836487333	94263.018463458	94263.2114915
94706.24860545801	5.35	0	94710.74860545801	5.349624624985154		94714.598592208	94711.598230083	94711.59860545801	94714.59860545801	94711.598236375	94714.593404	3.0	747.48		4	0	2	2	162	16	700	750	94262.400842166	94262.656494041	94262.836487333	94263.018463458	94263.2114915
94706.24860545801	5.35	0	94711.49860545801	5.349624624985154		94714.598592208	94711.598230083	94711.59860545801	94714.59860545801	94711.598236375	94714.593404	3.0	717.19		4	0	2	2	162	16	700	750	94262.400842166	94262.656494041	94262.836487333	94263.018463458	94263.2114915
94714.61327966601	5.35	0	94714.61327966601	5.348826416986412		94726.963255208	94719.962106083	94719.96327966602	94726.96327966602	94719.962110833	94726.96107875	7.0	753.7		3	5	1	2	163	16	700	750	94262.400842166	94262.656494041	94262.836487333	94263.018463458	94263.2114915
94714.61327966601	5.35	0	94715.36327966601	5.348826416986412		94726.963255208	94719.962106083	94719.96327966602	94726.96327966602	94719.962110833	94726.96107875	7.0	743.82		3	5	1	2	163	16	700	750	94262.400842166	94262.656494041	94262.836487333	94263.018463458	94263.2114915
94714.61327966601	5.35	0	94716.11327966601	5.348826416986412		94726.963255208	94719.962106083	94719.96327966602	94726.96327966602	94719.962110833	94726.96107875	7.0	771.87		3	5	1	2	163	16	700	750	94262.400842166	94262.656494041	94262.836487333	94263.018463458	94263.2114915
94714.61327966601	5.35	0	94716.86327966601	5.348826416986412		94726.963255208	94719.962106083	94719.96327966602	94726.96327966602	94719.962110833	94726.96107875	7.0	748.02		3	5	1	2	163	16	700	750	94262.400842166	94262.656494041	94262.836487333	94263.018463458	94263.2114915
94714.61327966601	5.35	0	94717.61327966601	5.348826416986412		94726.963255208	94719.962106083	94719.96327966602	94726.96327966602	94719.962110833	94726.96107875	7.0	722.69		3	5	1	2	163	16	700	750	94262.400842166	94262.656494041	94262.836487333	94263.018463458	94263.2114915
94714.61327966601	5.35	1	94718.36327966601	5.348826416986412		94726.963255208	94719.962106083	94719.96327966602	94726.96327966602	94719.962110833	94726.96107875	7.0	746.26		3	5	1	2	163	16	700	750	94262.400842166	94262.656494041	94262.836487333	94263.018463458	94263.2114915
94714.61327966601	5.35	0	94719.11327966601	5.348826416986412		94726.963255208	94719.962106083	94719.96327966602	94726.96327966602	94719.962110833	94726.96107875	7.0	729.86		3	5	1	2	163	16	700	750	94262.400842166	94262.656494041	94262.836487333	94263.018463458	94263.2114915
94714.61327966601	5.35	0	94719.86327966601	5.348826416986412		94726.963255208	94719.962106083	94719.96327966602	94726.96327966602	94719.962110833	94726.96107875	7.0	706.59		3	5	1	2	163	16	700	750	94262.400842166	94262.656494041	94262.836487333	94263.018463458	94263.2114915
94726.979505166	5.35	0	94726.979505166	5.3477987090009265		94736.329483416	94732.327303875	94732.32950516601	94736.32950516601	94732.327309708	94736.328687166	4.0	703.84		3	5	1	2	164	16	700	750	94262.400842166	94262.656494041	94262.836487333	94263.018463458	94263.2114915
94726.979505166	5.35	0	94727.729505166	5.3477987090009265		94736.329483416	94732.327303875	94732.32950516601	94736.32950516601	94732.327309708	94736.328687166	4.0	679.27		3	5	1	2	164	16	700	750	94262.400842166	94262.656494041	94262.836487333	94263.018463458	94263.2114915
94726.979505166	5.35	0	94728.479505166	5.3477987090009265		94736.329483416	94732.327303875	94732.32950516601	94736.32950516601	94732.327309708	94736.328687166	4.0	693.38		3	5	1	2	164	16	700	750	94262.400842166	94262.656494041	94262.836487333	94263.018463458	94263.2114915
94726.979505166	5.35	0	94729.229505166	5.3477987090009265		94736.329483416	94732.327303875	94732.32950516601	94736.32950516601	94732.327309708	94736.328687166	4.0	689.33		3	5	1	2	164	16	700	750	94262.400842166	94262.656494041	94262.836487333	94263.018463458	94263.2114915
94726.979505166	5.35	0	94729.979505166	5.3477987090009265		94736.329483416	94732.327303875	94732.32950516601	94736.32950516601	94732.327309708	94736.328687166	4.0	742.44		3	5	1	2	164	16	700	750	94262.400842166	94262.656494041	94262.836487333	94263.018463458	94263.2114915
94726.979505166	5.35	1	94730.729505166	5.3477987090009265		94736.329483416	94732.327303875	94732.32950516601	94736.32950516601	94732.327309708	94736.328687166	4.0	763.56		3	5	1	2	164	16	700	750	94262.400842166	94262.656494041	94262.836487333	94263.018463458	94263.2114915
94726.979505166	5.35	0	94731.479505166	5.3477987090009265		94736.329483416	94732.327303875	94732.32950516601	94736.32950516601	94732.327309708	94736.328687166	4.0	717.57		3	5	1	2	164	16	700	750	94262.400842166	94262.656494041	94262.836487333	94263.018463458	94263.2114915
94726.979505166	5.35	0	94732.229505166	5.3477987090009265		94736.329483416	94732.327303875	94732.32950516601	94736.32950516601	94732.327309708	94736.328687166	4.0	727.57		3	5	1	2	164	16	700	750	94262.400842166	94262.656494041	94262.836487333	94263.018463458	94263.2114915
94736.347920875	5.35	0	94736.347920875	5.349401790997945		94748.697890166	94741.697322666	94741.69792087501	94748.69792087501	94741.697333125	94748.697097208	7.0	718.37		3	5	1	2	165	16	700	750	94262.400842166	94262.656494041	94262.836487333	94263.018463458	94263.2114915
94736.347920875	5.35	0	94737.097920875	5.349401790997945		94748.697890166	94741.697322666	94741.69792087501	94748.69792087501	94741.697333125	94748.697097208	7.0	725.12		3	5	1	2	165	16	700	750	94262.400842166	94262.656494041	94262.836487333	94263.018463458	94263.2114915
94736.347920875	5.35	0	94737.847920875	5.349401790997945		94748.697890166	94741.697322666	94741.69792087501	94748.69792087501	94741.697333125	94748.697097208	7.0	743.72		3	5	1	2	165	16	700	750	94262.400842166	94262.656494041	94262.836487333	94263.018463458	94263.2114915
94736.347920875	5.35	0	94738.597920875	5.349401790997945		94748.697890166	94741.697322666	94741.69792087501	94748.69792087501	94741.697333125	94748.697097208	7.0	727.74		3	5	1	2	165	16	700	750	94262.400842166	94262.656494041	94262.836487333	94263.018463458	94263.2114915
94736.347920875	5.35	0	94739.347920875	5.349401790997945		94748.697890166	94741.697322666	94741.69792087501	94748.69792087501	94741.697333125	94748.697097208	7.0	728.2		3	5	1	2	165	16	700	750	94262.400842166	94262.656494041	94262.836487333	94263.018463458	94263.2114915
94736.347920875	5.35	1	94740.097920875	5.349401790997945		94748.697890166	94741.697322666	94741.69792087501	94748.69792087501	94741.697333125	94748.697097208	7.0	754.52		3	5	1	2	165	16	700	750	94262.400842166	94262.656494041	94262.836487333	94263.018463458	94263.2114915
94736.347920875	5.35	0	94740.847920875	5.349401790997945		94748.697890166	94741.697322666	94741.69792087501	94748.69792087501	94741.697333125	94748.697097208	7.0	718.67		3	5	1	2	165	16	700	750	94262.400842166	94262.656494041	94262.836487333	94263.018463458	94263.2114915
