onset	duration	trial_type	onset_tone	duration_imprecise	response_time_imprecise	offset_trial	offset_sound_imprecise	onset_iti	offset_iti	onset_iti_imprecise	offset_iti_imprecise	ITI	frequency	key_pressed	confidence	correct	dpos	rule	runs	trial_no	tau_std	lim_std	lim_dev	trigger_time_1	trigger_time_2	trigger_time_3	trigger_time_4	trigger_time_5
24352.488510208335	5.35	0	24352.488510208335	5.349565707663714		24366.839003249337	24357.838075916	24357.838510208334	24366.838510208334	24357.838170583	24366.82496925	9.0	-0.67			3	5	1	0	0	16	-0.6	-0.4923	24351.702824375	24351.815583791	24351.998866625	24352.190692416	24352.400821083
24352.488510208335	5.35	0	24353.238510208335	5.349565707663714		24366.839003249337	24357.838075916	24357.838510208334	24366.838510208334	24357.838170583	24366.82496925	9.0	-0.64			3	5	1	0	0	16	-0.6	-0.4923	24351.702824375	24351.815583791	24351.998866625	24352.190692416	24352.400821083
24352.488510208335	5.35	0	24353.988510208335	5.349565707663714		24366.839003249337	24357.838075916	24357.838510208334	24366.838510208334	24357.838170583	24366.82496925	9.0	-0.65			3	5	1	0	0	16	-0.6	-0.4923	24351.702824375	24351.815583791	24351.998866625	24352.190692416	24352.400821083
24352.488510208335	5.35	0	24354.738510208335	5.349565707663714		24366.839003249337	24357.838075916	24357.838510208334	24366.838510208334	24357.838170583	24366.82496925	9.0	-0.61			3	5	1	0	0	16	-0.6	-0.4923	24351.702824375	24351.815583791	24351.998866625	24352.190692416	24352.400821083
24352.488510208335	5.35	0	24355.488510208335	5.349565707663714		24366.839003249337	24357.838075916	24357.838510208334	24366.838510208334	24357.838170583	24366.82496925	9.0	-0.64			3	5	1	0	0	16	-0.6	-0.4923	24351.702824375	24351.815583791	24351.998866625	24352.190692416	24352.400821083
24352.488510208335	5.35	1	24356.238510208335	5.349565707663714		24366.839003249337	24357.838075916	24357.838510208334	24366.838510208334	24357.838170583	24366.82496925	9.0	-0.51			3	5	1	0	0	16	-0.6	-0.4923	24351.702824375	24351.815583791	24351.998866625	24352.190692416	24352.400821083
24352.488510208335	5.35	0	24356.988510208335	5.349565707663714		24366.839003249337	24357.838075916	24357.838510208334	24366.838510208334	24357.838170583	24366.82496925	9.0	-0.64			3	5	1	0	0	16	-0.6	-0.4923	24351.702824375	24351.815583791	24351.998866625	24352.190692416	24352.400821083
24352.488510208335	5.35	0	24357.738510208335	5.349565707663714		24366.839003249337	24357.838075916	24357.838510208334	24366.838510208334	24357.838170583	24366.82496925	9.0	-0.59			3	5	1	0	0	16	-0.6	-0.4923	24351.702824375	24351.815583791	24351.998866625	24352.190692416	24352.400821083
24366.844940708335	5.35	0	24366.844940708335	5.347937999664282		24382.694840333337	24372.192878708	24372.194940708334	24382.694940708334	24372.192964875	24382.693223791	10.5	-0.54			3	4	1	0	1	16	-0.6	-0.4923	24351.702824375	24351.815583791	24351.998866625	24352.190692416	24352.400821083
24366.844940708335	5.35	0	24367.594940708335	5.347937999664282		24382.694840333337	24372.192878708	24372.194940708334	24382.694940708334	24372.192964875	24382.693223791	10.5	-0.49			3	4	1	0	1	16	-0.6	-0.4923	24351.702824375	24351.815583791	24351.998866625	24352.190692416	24352.400821083
24366.844940708335	5.35	0	24368.344940708335	5.347937999664282		24382.694840333337	24372.192878708	24372.194940708334	24382.694940708334	24372.192964875	24382.693223791	10.5	-0.42			3	4	1	0	1	16	-0.6	-0.4923	24351.702824375	24351.815583791	24351.998866625	24352.190692416	24352.400821083
24366.844940708335	5.35	0	24369.094940708335	5.347937999664282		24382.694840333337	24372.192878708	24372.194940708334	24382.694940708334	24372.192964875	24382.693223791	10.5	-0.48			3	4	1	0	1	16	-0.6	-0.4923	24351.702824375	24351.815583791	24351.998866625	24352.190692416	24352.400821083
24366.844940708335	5.35	1	24369.844940708335	5.347937999664282		24382.694840333337	24372.192878708	24372.194940708334	24382.694940708334	24372.192964875	24382.693223791	10.5	-0.41			3	4	1	0	1	16	-0.6	-0.4923	24351.702824375	24351.815583791	24351.998866625	24352.190692416	24352.400821083
24366.844940708335	5.35	0	24370.594940708335	5.347937999664282		24382.694840333337	24372.192878708	24372.194940708334	24382.694940708334	24372.192964875	24382.693223791	10.5	-0.51			3	4	1	0	1	16	-0.6	-0.4923	24351.702824375	24351.815583791	24351.998866625	24352.190692416	24352.400821083
24366.844940708335	5.35	0	24371.344940708335	5.347937999664282		24382.694840333337	24372.192878708	24372.194940708334	24382.694940708334	24372.192964875	24382.693223791	10.5	-0.48			3	4	1	0	1	16	-0.6	-0.4923	24351.702824375	24351.815583791	24351.998866625	24352.190692416	24352.400821083
24366.844940708335	5.35	0	24372.094940708335	5.347937999664282		24382.694840333337	24372.192878708	24372.194940708334	24382.694940708334	24372.192964875	24382.693223791	10.5	-0.51			3	4	1	0	1	16	-0.6	-0.4923	24351.702824375	24351.815583791	24351.998866625	24352.190692416	24352.400821083
24382.711090208337	5.35	0	24382.711090208337	5.347140374662558		24398.560990458336	24388.058230583	24388.061090208335	24398.561090208335	24388.058320875	24398.55925225	10.5	-0.59			3	4	1	0	2	16	-0.6	-0.4923	24351.702824375	24351.815583791	24351.998866625	24352.190692416	24352.400821083
24382.711090208337	5.35	0	24383.461090208337	5.347140374662558		24398.560990458336	24388.058230583	24388.061090208335	24398.561090208335	24388.058320875	24398.55925225	10.5	-0.56			3	4	1	0	2	16	-0.6	-0.4923	24351.702824375	24351.815583791	24351.998866625	24352.190692416	24352.400821083
24382.711090208337	5.35	0	24384.211090208337	5.347140374662558		24398.560990458336	24388.058230583	24388.061090208335	24398.561090208335	24388.058320875	24398.55925225	10.5	-0.56			3	4	1	0	2	16	-0.6	-0.4923	24351.702824375	24351.815583791	24351.998866625	24352.190692416	24352.400821083
24382.711090208337	5.35	0	24384.961090208337	5.347140374662558		24398.560990458336	24388.058230583	24388.061090208335	24398.561090208335	24388.058320875	24398.55925225	10.5	-0.52			3	4	1	0	2	16	-0.6	-0.4923	24351.702824375	24351.815583791	24351.998866625	24352.190692416	24352.400821083
24382.711090208337	5.35	1	24385.711090208337	5.347140374662558		24398.560990458336	24388.058230583	24388.061090208335	24398.561090208335	24388.058320875	24398.55925225	10.5	-0.34			3	4	1	0	2	16	-0.6	-0.4923	24351.702824375	24351.815583791	24351.998866625	24352.190692416	24352.400821083
24382.711090208337	5.35	0	24386.461090208337	5.347140374662558		24398.560990458336	24388.058230583	24388.061090208335	24398.561090208335	24388.058320875	24398.55925225	10.5	-0.59			3	4	1	0	2	16	-0.6	-0.4923	24351.702824375	24351.815583791	24351.998866625	24352.190692416	24352.400821083
24382.711090208337	5.35	0	24387.211090208337	5.347140374662558		24398.560990458336	24388.058230583	24388.061090208335	24398.561090208335	24388.058320875	24398.55925225	10.5	-0.51			3	4	1	0	2	16	-0.6	-0.4923	24351.702824375	24351.815583791	24351.998866625	24352.190692416	24352.400821083
24382.711090208337	5.35	0	24387.961090208337	5.347140374662558		24398.560990458336	24388.058230583	24388.061090208335	24398.561090208335	24388.058320875	24398.55925225	10.5	-0.55			3	4	1	0	2	16	-0.6	-0.4923	24351.702824375	24351.815583791	24351.998866625	24352.190692416	24352.400821083
24398.578802833337	5.35	0	24398.578802833337	5.34715699966182		24413.928705916336	24403.925959833	24403.928802833336	24413.928802833336	24403.926057291	24413.925590375	10.0	-0.56			3	5	1	0	3	16	-0.6	-0.4923	24351.702824375	24351.815583791	24351.998866625	24352.190692416	24352.400821083
24398.578802833337	5.35	0	24399.328802833337	5.34715699966182		24413.928705916336	24403.925959833	24403.928802833336	24413.928802833336	24403.926057291	24413.925590375	10.0	-0.5			3	5	1	0	3	16	-0.6	-0.4923	24351.702824375	24351.815583791	24351.998866625	24352.190692416	24352.400821083
24398.578802833337	5.35	0	24400.078802833337	5.34715699966182		24413.928705916336	24403.925959833	24403.928802833336	24413.928802833336	24403.926057291	24413.925590375	10.0	-0.52			3	5	1	0	3	16	-0.6	-0.4923	24351.702824375	24351.815583791	24351.998866625	24352.190692416	24352.400821083
24398.578802833337	5.35	0	24400.828802833337	5.34715699966182		24413.928705916336	24403.925959833	24403.928802833336	24413.928802833336	24403.926057291	24413.925590375	10.0	-0.51			3	5	1	0	3	16	-0.6	-0.4923	24351.702824375	24351.815583791	24351.998866625	24352.190692416	24352.400821083
24398.578802833337	5.35	0	24401.578802833337	5.34715699966182		24413.928705916336	24403.925959833	24403.928802833336	24413.928802833336	24403.926057291	24413.925590375	10.0	-0.54			3	5	1	0	3	16	-0.6	-0.4923	24351.702824375	24351.815583791	24351.998866625	24352.190692416	24352.400821083
24398.578802833337	5.35	1	24402.328802833337	5.34715699966182		24413.928705916336	24403.925959833	24403.928802833336	24413.928802833336	24403.926057291	24413.925590375	10.0	-0.44			3	5	1	0	3	16	-0.6	-0.4923	24351.702824375	24351.815583791	24351.998866625	24352.190692416	24352.400821083
24398.578802833337	5.35	0	24403.078802833337	5.34715699966182		24413.928705916336	24403.925959833	24403.928802833336	24413.928802833336	24403.926057291	24413.925590375	10.0	-0.59			3	5	1	0	3	16	-0.6	-0.4923	24351.702824375	24351.815583791	24351.998866625	24352.190692416	24352.400821083
24398.578802833337	5.35	0	24403.828802833337	5.34715699966182		24413.928705916336	24403.925959833	24403.928802833336	24413.928802833336	24403.926057291	24413.925590375	10.0	-0.61			3	5	1	0	3	16	-0.6	-0.4923	24351.702824375	24351.815583791	24351.998866625	24352.190692416	24352.400821083
24413.944330833336	5.35	0	24413.944330833336	5.346944124663423		24430.294226624337	24419.291274958	24419.294330833334	24430.294330833334	24419.291398	24430.29114425	11.0	-0.61			3	5	1	0	4	16	-0.6	-0.4923	24351.702824375	24351.815583791	24351.998866625	24352.190692416	24352.400821083
24413.944330833336	5.35	0	24414.694330833336	5.346944124663423		24430.294226624337	24419.291274958	24419.294330833334	24430.294330833334	24419.291398	24430.29114425	11.0	-0.61			3	5	1	0	4	16	-0.6	-0.4923	24351.702824375	24351.815583791	24351.998866625	24352.190692416	24352.400821083
24413.944330833336	5.35	0	24415.444330833336	5.346944124663423		24430.294226624337	24419.291274958	24419.294330833334	24430.294330833334	24419.291398	24430.29114425	11.0	-0.62			3	5	1	0	4	16	-0.6	-0.4923	24351.702824375	24351.815583791	24351.998866625	24352.190692416	24352.400821083
24413.944330833336	5.35	0	24416.194330833336	5.346944124663423		24430.294226624337	24419.291274958	24419.294330833334	24430.294330833334	24419.291398	24430.29114425	11.0	-0.63			3	5	1	0	4	16	-0.6	-0.4923	24351.702824375	24351.815583791	24351.998866625	24352.190692416	24352.400821083
24413.944330833336	5.35	0	24416.944330833336	5.346944124663423		24430.294226624337	24419.291274958	24419.294330833334	24430.294330833334	24419.291398	24430.29114425	11.0	-0.6			3	5	1	0	4	16	-0.6	-0.4923	24351.702824375	24351.815583791	24351.998866625	24352.190692416	24352.400821083
24413.944330833336	5.35	1	24417.694330833336	5.346944124663423		24430.294226624337	24419.291274958	24419.294330833334	24430.294330833334	24419.291398	24430.29114425	11.0	-0.42			3	5	1	0	4	16	-0.6	-0.4923	24351.702824375	24351.815583791	24351.998866625	24352.190692416	24352.400821083
24413.944330833336	5.35	0	24418.444330833336	5.346944124663423		24430.294226624337	24419.291274958	24419.294330833334	24430.294330833334	24419.291398	24430.29114425	11.0	-0.64			3	5	1	0	4	16	-0.6	-0.4923	24351.702824375	24351.815583791	24351.998866625	24352.190692416	24352.400821083
24413.944330833336	5.35	0	24419.194330833336	5.346944124663423		24430.294226624337	24419.291274958	24419.294330833334	24430.294330833334	24419.291398	24430.29114425	11.0	-0.58			3	5	1	0	4	16	-0.6	-0.4923	24351.702824375	24351.815583791	24351.998866625	24352.190692416	24352.400821083
24430.310163999337	5.35	0	24430.310163999337	5.349066791663063		24446.660060041337	24435.659230791	24435.660163999335	24446.660163999335	24435.659314916	24446.65759475	11.0	-0.59			4	0	2	0	5	16	-0.6	-0.4923	24351.702824375	24351.815583791	24351.998866625	24352.190692416	24352.400821083
24430.310163999337	5.35	0	24431.060163999337	5.349066791663063		24446.660060041337	24435.659230791	24435.660163999335	24446.660163999335	24435.659314916	24446.65759475	11.0	-0.59			4	0	2	0	5	16	-0.6	-0.4923	24351.702824375	24351.815583791	24351.998866625	24352.190692416	24352.400821083
24430.310163999337	5.35	0	24431.810163999337	5.349066791663063		24446.660060041337	24435.659230791	24435.660163999335	24446.660163999335	24435.659314916	24446.65759475	11.0	-0.6			4	0	2	0	5	16	-0.6	-0.4923	24351.702824375	24351.815583791	24351.998866625	24352.190692416	24352.400821083
24430.310163999337	5.35	0	24432.560163999337	5.349066791663063		24446.660060041337	24435.659230791	24435.660163999335	24446.660163999335	24435.659314916	24446.65759475	11.0	-0.62			4	0	2	0	5	16	-0.6	-0.4923	24351.702824375	24351.815583791	24351.998866625	24352.190692416	24352.400821083
24430.310163999337	5.35	0	24433.310163999337	5.349066791663063		24446.660060041337	24435.659230791	24435.660163999335	24446.660163999335	24435.659314916	24446.65759475	11.0	-0.56			4	0	2	0	5	16	-0.6	-0.4923	24351.702824375	24351.815583791	24351.998866625	24352.190692416	24352.400821083
24430.310163999337	5.35	0	24434.060163999337	5.349066791663063		24446.660060041337	24435.659230791	24435.660163999335	24446.660163999335	24435.659314916	24446.65759475	11.0	-0.51			4	0	2	0	5	16	-0.6	-0.4923	24351.702824375	24351.815583791	24351.998866625	24352.190692416	24352.400821083
24430.310163999337	5.35	0	24434.810163999337	5.349066791663063		24446.660060041337	24435.659230791	24435.660163999335	24446.660163999335	24435.659314916	24446.65759475	11.0	-0.6			4	0	2	0	5	16	-0.6	-0.4923	24351.702824375	24351.815583791	24351.998866625	24352.190692416	24352.400821083
24430.310163999337	5.35	0	24435.560163999337	5.349066791663063		24446.660060041337	24435.659230791	24435.660163999335	24446.660163999335	24435.659314916	24446.65759475	11.0	-0.59			4	0	2	0	5	16	-0.6	-0.4923	24351.702824375	24351.815583791	24351.998866625	24352.190692416	24352.400821083
24446.677247458338	5.35	0	24446.677247458338	5.34760320766145		24460.027162916336	24452.024850666	24452.027247458336	24460.027247458336	24452.024935958	24460.025650333	8.0	-0.53			3	4	1	0	6	16	-0.6	-0.4923	24351.702824375	24351.815583791	24351.998866625	24352.190692416	24352.400821083
24446.677247458338	5.35	0	24447.427247458338	5.34760320766145		24460.027162916336	24452.024850666	24452.027247458336	24460.027247458336	24452.024935958	24460.025650333	8.0	-0.57			3	4	1	0	6	16	-0.6	-0.4923	24351.702824375	24351.815583791	24351.998866625	24352.190692416	24352.400821083
24446.677247458338	5.35	0	24448.177247458338	5.34760320766145		24460.027162916336	24452.024850666	24452.027247458336	24460.027247458336	24452.024935958	24460.025650333	8.0	-0.56			3	4	1	0	6	16	-0.6	-0.4923	24351.702824375	24351.815583791	24351.998866625	24352.190692416	24352.400821083
24446.677247458338	5.35	0	24448.927247458338	5.34760320766145		24460.027162916336	24452.024850666	24452.027247458336	24460.027247458336	24452.024935958	24460.025650333	8.0	-0.56			3	4	1	0	6	16	-0.6	-0.4923	24351.702824375	24351.815583791	24351.998866625	24352.190692416	24352.400821083
24446.677247458338	5.35	1	24449.677247458338	5.34760320766145		24460.027162916336	24452.024850666	24452.027247458336	24460.027247458336	24452.024935958	24460.025650333	8.0	-0.48			3	4	1	0	6	16	-0.6	-0.4923	24351.702824375	24351.815583791	24351.998866625	24352.190692416	24352.400821083
24446.677247458338	5.35	0	24450.427247458338	5.34760320766145		24460.027162916336	24452.024850666	24452.027247458336	24460.027247458336	24452.024935958	24460.025650333	8.0	-0.56			3	4	1	0	6	16	-0.6	-0.4923	24351.702824375	24351.815583791	24351.998866625	24352.190692416	24352.400821083
24446.677247458338	5.35	0	24451.177247458338	5.34760320766145		24460.027162916336	24452.024850666	24452.027247458336	24460.027247458336	24452.024935958	24460.025650333	8.0	-0.53			3	4	1	0	6	16	-0.6	-0.4923	24351.702824375	24351.815583791	24351.998866625	24352.190692416	24352.400821083
24446.677247458338	5.35	0	24451.927247458338	5.34760320766145		24460.027162916336	24452.024850666	24452.027247458336	24460.027247458336	24452.024935958	24460.025650333	8.0	-0.51			3	4	1	0	6	16	-0.6	-0.4923	24351.702824375	24351.815583791	24351.998866625	24352.190692416	24352.400821083
24460.043725208336	5.35	0	24460.043725208336	5.347649374663888		24474.893631041337	24465.391374583	24465.393725208334	24474.893725208334	24465.391449833	24474.890548166	9.5	-0.54			3	4	1	0	7	16	-0.6	-0.4923	24351.702824375	24351.815583791	24351.998866625	24352.190692416	24352.400821083
24460.043725208336	5.35	0	24460.793725208336	5.347649374663888		24474.893631041337	24465.391374583	24465.393725208334	24474.893725208334	24465.391449833	24474.890548166	9.5	-0.55			3	4	1	0	7	16	-0.6	-0.4923	24351.702824375	24351.815583791	24351.998866625	24352.190692416	24352.400821083
24460.043725208336	5.35	0	24461.543725208336	5.347649374663888		24474.893631041337	24465.391374583	24465.393725208334	24474.893725208334	24465.391449833	24474.890548166	9.5	-0.58			3	4	1	0	7	16	-0.6	-0.4923	24351.702824375	24351.815583791	24351.998866625	24352.190692416	24352.400821083
24460.043725208336	5.35	0	24462.293725208336	5.347649374663888		24474.893631041337	24465.391374583	24465.393725208334	24474.893725208334	24465.391449833	24474.890548166	9.5	-0.54			3	4	1	0	7	16	-0.6	-0.4923	24351.702824375	24351.815583791	24351.998866625	24352.190692416	24352.400821083
24460.043725208336	5.35	1	24463.043725208336	5.347649374663888		24474.893631041337	24465.391374583	24465.393725208334	24474.893725208334	24465.391449833	24474.890548166	9.5	-0.52			3	4	1	0	7	16	-0.6	-0.4923	24351.702824375	24351.815583791	24351.998866625	24352.190692416	24352.400821083
24460.043725208336	5.35	0	24463.793725208336	5.347649374663888		24474.893631041337	24465.391374583	24465.393725208334	24474.893725208334	24465.391449833	24474.890548166	9.5	-0.52			3	4	1	0	7	16	-0.6	-0.4923	24351.702824375	24351.815583791	24351.998866625	24352.190692416	24352.400821083
24460.043725208336	5.35	0	24464.543725208336	5.347649374663888		24474.893631041337	24465.391374583	24465.393725208334	24474.893725208334	24465.391449833	24474.890548166	9.5	-0.59			3	4	1	0	7	16	-0.6	-0.4923	24351.702824375	24351.815583791	24351.998866625	24352.190692416	24352.400821083
24460.043725208336	5.35	0	24465.293725208336	5.347649374663888		24474.893631041337	24465.391374583	24465.393725208334	24474.893725208334	24465.391449833	24474.890548166	9.5	-0.56			3	4	1	0	7	16	-0.6	-0.4923	24351.702824375	24351.815583791	24351.998866625	24352.190692416	24352.400821083
24474.910818416338	5.35	0	24474.910818416338	5.346782249660464		24489.260727541336	24480.257600666	24480.260818416336	24489.260818416336	24480.257687541	24489.2581045	9.0	-0.63			3	5	1	0	8	16	-0.6	-0.4923	24351.702824375	24351.815583791	24351.998866625	24352.190692416	24352.400821083
24474.910818416338	5.35	0	24475.660818416338	5.346782249660464		24489.260727541336	24480.257600666	24480.260818416336	24489.260818416336	24480.257687541	24489.2581045	9.0	-0.6			3	5	1	0	8	16	-0.6	-0.4923	24351.702824375	24351.815583791	24351.998866625	24352.190692416	24352.400821083
24474.910818416338	5.35	0	24476.410818416338	5.346782249660464		24489.260727541336	24480.257600666	24480.260818416336	24489.260818416336	24480.257687541	24489.2581045	9.0	-0.57			3	5	1	0	8	16	-0.6	-0.4923	24351.702824375	24351.815583791	24351.998866625	24352.190692416	24352.400821083
24474.910818416338	5.35	0	24477.160818416338	5.346782249660464		24489.260727541336	24480.257600666	24480.260818416336	24489.260818416336	24480.257687541	24489.2581045	9.0	-0.54			3	5	1	0	8	16	-0.6	-0.4923	24351.702824375	24351.815583791	24351.998866625	24352.190692416	24352.400821083
24474.910818416338	5.35	0	24477.910818416338	5.346782249660464		24489.260727541336	24480.257600666	24480.260818416336	24489.260818416336	24480.257687541	24489.2581045	9.0	-0.51			3	5	1	0	8	16	-0.6	-0.4923	24351.702824375	24351.815583791	24351.998866625	24352.190692416	24352.400821083
24474.910818416338	5.35	1	24478.660818416338	5.346782249660464		24489.260727541336	24480.257600666	24480.260818416336	24489.260818416336	24480.257687541	24489.2581045	9.0	-0.5			3	5	1	0	8	16	-0.6	-0.4923	24351.702824375	24351.815583791	24351.998866625	24352.190692416	24352.400821083
24474.910818416338	5.35	0	24479.410818416338	5.346782249660464		24489.260727541336	24480.257600666	24480.260818416336	24489.260818416336	24480.257687541	24489.2581045	9.0	-0.57			3	5	1	0	8	16	-0.6	-0.4923	24351.702824375	24351.815583791	24351.998866625	24352.190692416	24352.400821083
24474.910818416338	5.35	0	24480.160818416338	5.346782249660464		24489.260727541336	24480.257600666	24480.260818416336	24489.260818416336	24480.257687541	24489.2581045	9.0	-0.49			3	5	1	0	8	16	-0.6	-0.4923	24351.702824375	24351.815583791	24351.998866625	24352.190692416	24352.400821083
24489.277914916336	5.35	0	24489.277914916336	5.347795124664117		24503.627823708335	24494.625710041	24494.627914916335	24503.627914916335	24494.625793791	24503.624276708	9.0	-0.64			3	6	1	0	9	16	-0.6	-0.4923	24351.702824375	24351.815583791	24351.998866625	24352.190692416	24352.400821083
24489.277914916336	5.35	0	24490.027914916336	5.347795124664117		24503.627823708335	24494.625710041	24494.627914916335	24503.627914916335	24494.625793791	24503.624276708	9.0	-0.64			3	6	1	0	9	16	-0.6	-0.4923	24351.702824375	24351.815583791	24351.998866625	24352.190692416	24352.400821083
24489.277914916336	5.35	0	24490.777914916336	5.347795124664117		24503.627823708335	24494.625710041	24494.627914916335	24503.627914916335	24494.625793791	24503.624276708	9.0	-0.63			3	6	1	0	9	16	-0.6	-0.4923	24351.702824375	24351.815583791	24351.998866625	24352.190692416	24352.400821083
24489.277914916336	5.35	0	24491.527914916336	5.347795124664117		24503.627823708335	24494.625710041	24494.627914916335	24503.627914916335	24494.625793791	24503.624276708	9.0	-0.62			3	6	1	0	9	16	-0.6	-0.4923	24351.702824375	24351.815583791	24351.998866625	24352.190692416	24352.400821083
24489.277914916336	5.35	0	24492.277914916336	5.347795124664117		24503.627823708335	24494.625710041	24494.627914916335	24503.627914916335	24494.625793791	24503.624276708	9.0	-0.65			3	6	1	0	9	16	-0.6	-0.4923	24351.702824375	24351.815583791	24351.998866625	24352.190692416	24352.400821083
24489.277914916336	5.35	0	24493.027914916336	5.347795124664117		24503.627823708335	24494.625710041	24494.627914916335	24503.627914916335	24494.625793791	24503.624276708	9.0	-0.66			3	6	1	0	9	16	-0.6	-0.4923	24351.702824375	24351.815583791	24351.998866625	24352.190692416	24352.400821083
24489.277914916336	5.35	1	24493.777914916336	5.347795124664117		24503.627823708335	24494.625710041	24494.627914916335	24503.627914916335	24494.625793791	24503.624276708	9.0	-0.49			3	6	1	0	9	16	-0.6	-0.4923	24351.702824375	24351.815583791	24351.998866625	24352.190692416	24352.400821083
24489.277914916336	5.35	0	24494.527914916336	5.347795124664117		24503.627823708335	24494.625710041	24494.627914916335	24503.627914916335	24494.625793791	24503.624276708	9.0	-0.68			3	6	1	0	9	16	-0.6	-0.4923	24351.702824375	24351.815583791	24351.998866625	24352.190692416	24352.400821083
24503.643448583338	5.35	0	24503.643448583338	5.346922332661052		24516.993363291338	24508.990370916	24508.993448583336	24516.993448583336	24508.990448291	24516.992389875	8.0	-0.64			3	5	1	0	10	16	-0.6	-0.4923	24351.702824375	24351.815583791	24351.998866625	24352.190692416	24352.400821083
24503.643448583338	5.35	0	24504.393448583338	5.346922332661052		24516.993363291338	24508.990370916	24508.993448583336	24516.993448583336	24508.990448291	24516.992389875	8.0	-0.64			3	5	1	0	10	16	-0.6	-0.4923	24351.702824375	24351.815583791	24351.998866625	24352.190692416	24352.400821083
24503.643448583338	5.35	0	24505.143448583338	5.346922332661052		24516.993363291338	24508.990370916	24508.993448583336	24516.993448583336	24508.990448291	24516.992389875	8.0	-0.69			3	5	1	0	10	16	-0.6	-0.4923	24351.702824375	24351.815583791	24351.998866625	24352.190692416	24352.400821083
24503.643448583338	5.35	0	24505.893448583338	5.346922332661052		24516.993363291338	24508.990370916	24508.993448583336	24516.993448583336	24508.990448291	24516.992389875	8.0	-0.67			3	5	1	0	10	16	-0.6	-0.4923	24351.702824375	24351.815583791	24351.998866625	24352.190692416	24352.400821083
24503.643448583338	5.35	0	24506.643448583338	5.346922332661052		24516.993363291338	24508.990370916	24508.993448583336	24516.993448583336	24508.990448291	24516.992389875	8.0	-0.57			3	5	1	0	10	16	-0.6	-0.4923	24351.702824375	24351.815583791	24351.998866625	24352.190692416	24352.400821083
24503.643448583338	5.35	1	24507.393448583338	5.346922332661052		24516.993363291338	24508.990370916	24508.993448583336	24516.993448583336	24508.990448291	24516.992389875	8.0	-0.5			3	5	1	0	10	16	-0.6	-0.4923	24351.702824375	24351.815583791	24351.998866625	24352.190692416	24352.400821083
24503.643448583338	5.35	0	24508.143448583338	5.346922332661052		24516.993363291338	24508.990370916	24508.993448583336	24516.993448583336	24508.990448291	24516.992389875	8.0	-0.58			3	5	1	0	10	16	-0.6	-0.4923	24351.702824375	24351.815583791	24351.998866625	24352.190692416	24352.400821083
24503.643448583338	5.35	0	24508.893448583338	5.346922332661052		24516.993363291338	24508.990370916	24508.993448583336	24516.993448583336	24508.990448291	24516.992389875	8.0	-0.57			3	5	1	0	10	16	-0.6	-0.4923	24351.702824375	24351.815583791	24351.998866625	24352.190692416	24352.400821083
24517.011488166336	5.35	0	24517.011488166336	5.347319624663214		24529.361410166337	24522.358807791	24522.361488166334	24529.361488166334	24522.358889625	24529.358398666	7.0	-0.77			3	5	1	0	11	16	-0.6	-0.4923	24351.702824375	24351.815583791	24351.998866625	24352.190692416	24352.400821083
24517.011488166336	5.35	0	24517.761488166336	5.347319624663214		24529.361410166337	24522.358807791	24522.361488166334	24529.361488166334	24522.358889625	24529.358398666	7.0	-0.8			3	5	1	0	11	16	-0.6	-0.4923	24351.702824375	24351.815583791	24351.998866625	24352.190692416	24352.400821083
24517.011488166336	5.35	0	24518.511488166336	5.347319624663214		24529.361410166337	24522.358807791	24522.361488166334	24529.361488166334	24522.358889625	24529.358398666	7.0	-0.8			3	5	1	0	11	16	-0.6	-0.4923	24351.702824375	24351.815583791	24351.998866625	24352.190692416	24352.400821083
24517.011488166336	5.35	0	24519.261488166336	5.347319624663214		24529.361410166337	24522.358807791	24522.361488166334	24529.361488166334	24522.358889625	24529.358398666	7.0	-0.82			3	5	1	0	11	16	-0.6	-0.4923	24351.702824375	24351.815583791	24351.998866625	24352.190692416	24352.400821083
24517.011488166336	5.35	0	24520.011488166336	5.347319624663214		24529.361410166337	24522.358807791	24522.361488166334	24529.361488166334	24522.358889625	24529.358398666	7.0	-0.75			3	5	1	0	11	16	-0.6	-0.4923	24351.702824375	24351.815583791	24351.998866625	24352.190692416	24352.400821083
24517.011488166336	5.35	1	24520.761488166336	5.347319624663214		24529.361410166337	24522.358807791	24522.361488166334	24529.361488166334	24522.358889625	24529.358398666	7.0	-0.5			3	5	1	0	11	16	-0.6	-0.4923	24351.702824375	24351.815583791	24351.998866625	24352.190692416	24352.400821083
24517.011488166336	5.35	0	24521.511488166336	5.347319624663214		24529.361410166337	24522.358807791	24522.361488166334	24529.361488166334	24522.358889625	24529.358398666	7.0	-0.74			3	5	1	0	11	16	-0.6	-0.4923	24351.702824375	24351.815583791	24351.998866625	24352.190692416	24352.400821083
24517.011488166336	5.35	0	24522.261488166336	5.347319624663214		24529.361410166337	24522.358807791	24522.361488166334	24529.361488166334	24522.358889625	24529.358398666	7.0	-0.73			3	5	1	0	11	16	-0.6	-0.4923	24351.702824375	24351.815583791	24351.998866625	24352.190692416	24352.400821083
24529.377035041336	5.35	0	24529.377035041336	5.34614924966445		24541.726956458337	24534.723184291	24534.727035041335	24541.727035041335	24534.723270166	24541.724358125	7.0	-0.61			3	6	1	0	12	16	-0.6	-0.4923	24351.702824375	24351.815583791	24351.998866625	24352.190692416	24352.400821083
24529.377035041336	5.35	0	24530.127035041336	5.34614924966445		24541.726956458337	24534.723184291	24534.727035041335	24541.727035041335	24534.723270166	24541.724358125	7.0	-0.57			3	6	1	0	12	16	-0.6	-0.4923	24351.702824375	24351.815583791	24351.998866625	24352.190692416	24352.400821083
24529.377035041336	5.35	0	24530.877035041336	5.34614924966445		24541.726956458337	24534.723184291	24534.727035041335	24541.727035041335	24534.723270166	24541.724358125	7.0	-0.57			3	6	1	0	12	16	-0.6	-0.4923	24351.702824375	24351.815583791	24351.998866625	24352.190692416	24352.400821083
24529.377035041336	5.35	0	24531.627035041336	5.34614924966445		24541.726956458337	24534.723184291	24534.727035041335	24541.727035041335	24534.723270166	24541.724358125	7.0	-0.55			3	6	1	0	12	16	-0.6	-0.4923	24351.702824375	24351.815583791	24351.998866625	24352.190692416	24352.400821083
24529.377035041336	5.35	0	24532.377035041336	5.34614924966445		24541.726956458337	24534.723184291	24534.727035041335	24541.727035041335	24534.723270166	24541.724358125	7.0	-0.57			3	6	1	0	12	16	-0.6	-0.4923	24351.702824375	24351.815583791	24351.998866625	24352.190692416	24352.400821083
24529.377035041336	5.35	0	24533.127035041336	5.34614924966445		24541.726956458337	24534.723184291	24534.727035041335	24541.727035041335	24534.723270166	24541.724358125	7.0	-0.62			3	6	1	0	12	16	-0.6	-0.4923	24351.702824375	24351.815583791	24351.998866625	24352.190692416	24352.400821083
24529.377035041336	5.35	1	24533.877035041336	5.34614924966445		24541.726956458337	24534.723184291	24534.727035041335	24541.727035041335	24534.723270166	24541.724358125	7.0	-0.54			3	6	1	0	12	16	-0.6	-0.4923	24351.702824375	24351.815583791	24351.998866625	24352.190692416	24352.400821083
24529.377035041336	5.35	0	24534.627035041336	5.34614924966445		24541.726956458337	24534.723184291	24534.727035041335	24541.727035041335	24534.723270166	24541.724358125	7.0	-0.51			3	6	1	0	12	16	-0.6	-0.4923	24351.702824375	24351.815583791	24351.998866625	24352.190692416	24352.400821083
24541.743831333337	5.35	0	24541.743831333337	5.343566249663127		24558.593725124338	24547.087397583	24547.093831333335	24558.593831333335	24547.087493375	24558.591555375	11.5	-0.7			4	0	2	0	13	16	-0.6	-0.4923	24351.702824375	24351.815583791	24351.998866625	24352.190692416	24352.400821083
24541.743831333337	5.35	0	24542.493831333337	5.343566249663127		24558.593725124338	24547.087397583	24547.093831333335	24558.593831333335	24547.087493375	24558.591555375	11.5	-0.66			4	0	2	0	13	16	-0.6	-0.4923	24351.702824375	24351.815583791	24351.998866625	24352.190692416	24352.400821083
24541.743831333337	5.35	0	24543.243831333337	5.343566249663127		24558.593725124338	24547.087397583	24547.093831333335	24558.593831333335	24547.087493375	24558.591555375	11.5	-0.67			4	0	2	0	13	16	-0.6	-0.4923	24351.702824375	24351.815583791	24351.998866625	24352.190692416	24352.400821083
24541.743831333337	5.35	0	24543.993831333337	5.343566249663127		24558.593725124338	24547.087397583	24547.093831333335	24558.593831333335	24547.087493375	24558.591555375	11.5	-0.67			4	0	2	0	13	16	-0.6	-0.4923	24351.702824375	24351.815583791	24351.998866625	24352.190692416	24352.400821083
24541.743831333337	5.35	0	24544.743831333337	5.343566249663127		24558.593725124338	24547.087397583	24547.093831333335	24558.593831333335	24547.087493375	24558.591555375	11.5	-0.68			4	0	2	0	13	16	-0.6	-0.4923	24351.702824375	24351.815583791	24351.998866625	24352.190692416	24352.400821083
24541.743831333337	5.35	0	24545.493831333337	5.343566249663127		24558.593725124338	24547.087397583	24547.093831333335	24558.593831333335	24547.087493375	24558.591555375	11.5	-0.66			4	0	2	0	13	16	-0.6	-0.4923	24351.702824375	24351.815583791	24351.998866625	24352.190692416	24352.400821083
24541.743831333337	5.35	0	24546.243831333337	5.343566249663127		24558.593725124338	24547.087397583	24547.093831333335	24558.593831333335	24547.087493375	24558.591555375	11.5	-0.7			4	0	2	0	13	16	-0.6	-0.4923	24351.702824375	24351.815583791	24351.998866625	24352.190692416	24352.400821083
24541.743831333337	5.35	0	24546.993831333337	5.343566249663127		24558.593725124338	24547.087397583	24547.093831333335	24558.593831333335	24547.087493375	24558.591555375	11.5	-0.64			4	0	2	0	13	16	-0.6	-0.4923	24351.702824375	24351.815583791	24351.998866625	24352.190692416	24352.400821083
24558.612162499336	5.35	0	24558.612162499336	5.346779625662748		24573.462068833338	24563.958942125	24563.962162499334	24573.462162499334	24563.959047666	24573.457913	9.5	-0.55			3	6	1	0	14	16	-0.6	-0.4923	24351.702824375	24351.815583791	24351.998866625	24352.190692416	24352.400821083
24558.612162499336	5.35	0	24559.362162499336	5.346779625662748		24573.462068833338	24563.958942125	24563.962162499334	24573.462162499334	24563.959047666	24573.457913	9.5	-0.62			3	6	1	0	14	16	-0.6	-0.4923	24351.702824375	24351.815583791	24351.998866625	24352.190692416	24352.400821083
24558.612162499336	5.35	0	24560.112162499336	5.346779625662748		24573.462068833338	24563.958942125	24563.962162499334	24573.462162499334	24563.959047666	24573.457913	9.5	-0.58			3	6	1	0	14	16	-0.6	-0.4923	24351.702824375	24351.815583791	24351.998866625	24352.190692416	24352.400821083
24558.612162499336	5.35	0	24560.862162499336	5.346779625662748		24573.462068833338	24563.958942125	24563.962162499334	24573.462162499334	24563.959047666	24573.457913	9.5	-0.63			3	6	1	0	14	16	-0.6	-0.4923	24351.702824375	24351.815583791	24351.998866625	24352.190692416	24352.400821083
24558.612162499336	5.35	0	24561.612162499336	5.346779625662748		24573.462068833338	24563.958942125	24563.962162499334	24573.462162499334	24563.959047666	24573.457913	9.5	-0.65			3	6	1	0	14	16	-0.6	-0.4923	24351.702824375	24351.815583791	24351.998866625	24352.190692416	24352.400821083
24558.612162499336	5.35	0	24562.362162499336	5.346779625662748		24573.462068833338	24563.958942125	24563.962162499334	24573.462162499334	24563.959047666	24573.457913	9.5	-0.66			3	6	1	0	14	16	-0.6	-0.4923	24351.702824375	24351.815583791	24351.998866625	24352.190692416	24352.400821083
24558.612162499336	5.35	1	24563.112162499336	5.346779625662748		24573.462068833338	24563.958942125	24563.962162499334	24573.462162499334	24563.959047666	24573.457913	9.5	-0.47			3	6	1	0	14	16	-0.6	-0.4923	24351.702824375	24351.815583791	24351.998866625	24352.190692416	24352.400821083
24558.612162499336	5.35	0	24563.862162499336	5.346779625662748		24573.462068833338	24563.958942125	24563.962162499334	24573.462162499334	24563.959047666	24573.457913	9.5	-0.69			3	6	1	0	14	16	-0.6	-0.4923	24351.702824375	24351.815583791	24351.998866625	24352.190692416	24352.400821083
24573.477693749337	5.35	0	24573.477693749337	5.347228125661786		24586.32761383334	24578.824921875	24578.827693749336	24586.327693749336	24578.825009166	24586.324481291	7.5	-0.66			3	5	1	0	15	16	-0.6	-0.4923	24351.702824375	24351.815583791	24351.998866625	24352.190692416	24352.400821083
24573.477693749337	5.35	0	24574.227693749337	5.347228125661786		24586.32761383334	24578.824921875	24578.827693749336	24586.327693749336	24578.825009166	24586.324481291	7.5	-0.62			3	5	1	0	15	16	-0.6	-0.4923	24351.702824375	24351.815583791	24351.998866625	24352.190692416	24352.400821083
24573.477693749337	5.35	0	24574.977693749337	5.347228125661786		24586.32761383334	24578.824921875	24578.827693749336	24586.327693749336	24578.825009166	24586.324481291	7.5	-0.66			3	5	1	0	15	16	-0.6	-0.4923	24351.702824375	24351.815583791	24351.998866625	24352.190692416	24352.400821083
24573.477693749337	5.35	0	24575.727693749337	5.347228125661786		24586.32761383334	24578.824921875	24578.827693749336	24586.327693749336	24578.825009166	24586.324481291	7.5	-0.58			3	5	1	0	15	16	-0.6	-0.4923	24351.702824375	24351.815583791	24351.998866625	24352.190692416	24352.400821083
24573.477693749337	5.35	0	24576.477693749337	5.347228125661786		24586.32761383334	24578.824921875	24578.827693749336	24586.327693749336	24578.825009166	24586.324481291	7.5	-0.58			3	5	1	0	15	16	-0.6	-0.4923	24351.702824375	24351.815583791	24351.998866625	24352.190692416	24352.400821083
24573.477693749337	5.35	1	24577.227693749337	5.347228125661786		24586.32761383334	24578.824921875	24578.827693749336	24586.327693749336	24578.825009166	24586.324481291	7.5	-0.49			3	5	1	0	15	16	-0.6	-0.4923	24351.702824375	24351.815583791	24351.998866625	24352.190692416	24352.400821083
24573.477693749337	5.35	0	24577.977693749337	5.347228125661786		24586.32761383334	24578.824921875	24578.827693749336	24586.327693749336	24578.825009166	24586.324481291	7.5	-0.61			3	5	1	0	15	16	-0.6	-0.4923	24351.702824375	24351.815583791	24351.998866625	24352.190692416	24352.400821083
24573.477693749337	5.35	0	24578.727693749337	5.347228125661786		24586.32761383334	24578.824921875	24578.827693749336	24586.327693749336	24578.825009166	24586.324481291	7.5	-0.64			3	5	1	0	15	16	-0.6	-0.4923	24351.702824375	24351.815583791	24351.998866625	24352.190692416	24352.400821083
24586.344176249335	5.35	0	24586.344176249335	5.347545333665039		24600.694087166336	24591.691721583	24591.694176249333	24600.694176249333	24591.691860375	24600.691574625	9.0	-0.54			3	4	1	0	16	16	-0.6	-0.4923	24351.702824375	24351.815583791	24351.998866625	24352.190692416	24352.400821083
24586.344176249335	5.35	0	24587.094176249335	5.347545333665039		24600.694087166336	24591.691721583	24591.694176249333	24600.694176249333	24591.691860375	24600.691574625	9.0	-0.6			3	4	1	0	16	16	-0.6	-0.4923	24351.702824375	24351.815583791	24351.998866625	24352.190692416	24352.400821083
24586.344176249335	5.35	0	24587.844176249335	5.347545333665039		24600.694087166336	24591.691721583	24591.694176249333	24600.694176249333	24591.691860375	24600.691574625	9.0	-0.59			3	4	1	0	16	16	-0.6	-0.4923	24351.702824375	24351.815583791	24351.998866625	24352.190692416	24352.400821083
24586.344176249335	5.35	0	24588.594176249335	5.347545333665039		24600.694087166336	24591.691721583	24591.694176249333	24600.694176249333	24591.691860375	24600.691574625	9.0	-0.55			3	4	1	0	16	16	-0.6	-0.4923	24351.702824375	24351.815583791	24351.998866625	24352.190692416	24352.400821083
24586.344176249335	5.35	1	24589.344176249335	5.347545333665039		24600.694087166336	24591.691721583	24591.694176249333	24600.694176249333	24591.691860375	24600.691574625	9.0	-0.51			3	4	1	0	16	16	-0.6	-0.4923	24351.702824375	24351.815583791	24351.998866625	24352.190692416	24352.400821083
24586.344176249335	5.35	0	24590.094176249335	5.347545333665039		24600.694087166336	24591.691721583	24591.694176249333	24600.694176249333	24591.691860375	24600.691574625	9.0	-0.6			3	4	1	0	16	16	-0.6	-0.4923	24351.702824375	24351.815583791	24351.998866625	24352.190692416	24352.400821083
24586.344176249335	5.35	0	24590.844176249335	5.347545333665039		24600.694087166336	24591.691721583	24591.694176249333	24600.694176249333	24591.691860375	24600.691574625	9.0	-0.55			3	4	1	0	16	16	-0.6	-0.4923	24351.702824375	24351.815583791	24351.998866625	24352.190692416	24352.400821083
24586.344176249335	5.35	0	24591.594176249335	5.347545333665039		24600.694087166336	24591.691721583	24591.694176249333	24600.694176249333	24591.691860375	24600.691574625	9.0	-0.6			3	4	1	0	16	16	-0.6	-0.4923	24351.702824375	24351.815583791	24351.998866625	24352.190692416	24352.400821083
24600.709399583335	5.35	0	24600.709399583335	5.348091332663898		24613.059322958336	24606.057490916	24606.059399583333	24613.059399583333	24606.057623708	24613.057039333	7.0	-0.62			3	6	1	0	17	16	-0.6	-0.4923	24351.702824375	24351.815583791	24351.998866625	24352.190692416	24352.400821083
24600.709399583335	5.35	0	24601.459399583335	5.348091332663898		24613.059322958336	24606.057490916	24606.059399583333	24613.059399583333	24606.057623708	24613.057039333	7.0	-0.61			3	6	1	0	17	16	-0.6	-0.4923	24351.702824375	24351.815583791	24351.998866625	24352.190692416	24352.400821083
24600.709399583335	5.35	0	24602.209399583335	5.348091332663898		24613.059322958336	24606.057490916	24606.059399583333	24613.059399583333	24606.057623708	24613.057039333	7.0	-0.62			3	6	1	0	17	16	-0.6	-0.4923	24351.702824375	24351.815583791	24351.998866625	24352.190692416	24352.400821083
24600.709399583335	5.35	0	24602.959399583335	5.348091332663898		24613.059322958336	24606.057490916	24606.059399583333	24613.059399583333	24606.057623708	24613.057039333	7.0	-0.61			3	6	1	0	17	16	-0.6	-0.4923	24351.702824375	24351.815583791	24351.998866625	24352.190692416	24352.400821083
24600.709399583335	5.35	0	24603.709399583335	5.348091332663898		24613.059322958336	24606.057490916	24606.059399583333	24613.059399583333	24606.057623708	24613.057039333	7.0	-0.61			3	6	1	0	17	16	-0.6	-0.4923	24351.702824375	24351.815583791	24351.998866625	24352.190692416	24352.400821083
24600.709399583335	5.35	0	24604.459399583335	5.348091332663898		24613.059322958336	24606.057490916	24606.059399583333	24613.059399583333	24606.057623708	24613.057039333	7.0	-0.59			3	6	1	0	17	16	-0.6	-0.4923	24351.702824375	24351.815583791	24351.998866625	24352.190692416	24352.400821083
24600.709399583335	5.35	1	24605.209399583335	5.348091332663898		24613.059322958336	24606.057490916	24606.059399583333	24613.059399583333	24606.057623708	24613.057039333	7.0	-0.56			3	6	1	0	17	16	-0.6	-0.4923	24351.702824375	24351.815583791	24351.998866625	24352.190692416	24352.400821083
24600.709399583335	5.35	0	24605.959399583335	5.348091332663898		24613.059322958336	24606.057490916	24606.059399583333	24613.059399583333	24606.057623708	24613.057039333	7.0	-0.58			3	6	1	0	17	16	-0.6	-0.4923	24351.702824375	24351.815583791	24351.998866625	24352.190692416	24352.400821083
24613.077447833337	5.35	0	24613.077447833337	5.347676124663849		24626.427364833336	24618.425123958	24618.427447833335	24626.427447833335	24618.425256041	24626.423593583	8.0	-0.49			3	6	1	0	18	16	-0.6	-0.4923	24351.702824375	24351.815583791	24351.998866625	24352.190692416	24352.400821083
24613.077447833337	5.35	0	24613.827447833337	5.347676124663849		24626.427364833336	24618.425123958	24618.427447833335	24626.427447833335	24618.425256041	24626.423593583	8.0	-0.55			3	6	1	0	18	16	-0.6	-0.4923	24351.702824375	24351.815583791	24351.998866625	24352.190692416	24352.400821083
24613.077447833337	5.35	0	24614.577447833337	5.347676124663849		24626.427364833336	24618.425123958	24618.427447833335	24626.427447833335	24618.425256041	24626.423593583	8.0	-0.54			3	6	1	0	18	16	-0.6	-0.4923	24351.702824375	24351.815583791	24351.998866625	24352.190692416	24352.400821083
24613.077447833337	5.35	0	24615.327447833337	5.347676124663849		24626.427364833336	24618.425123958	24618.427447833335	24626.427447833335	24618.425256041	24626.423593583	8.0	-0.55			3	6	1	0	18	16	-0.6	-0.4923	24351.702824375	24351.815583791	24351.998866625	24352.190692416	24352.400821083
24613.077447833337	5.35	0	24616.077447833337	5.347676124663849		24626.427364833336	24618.425123958	24618.427447833335	24626.427447833335	24618.425256041	24626.423593583	8.0	-0.54			3	6	1	0	18	16	-0.6	-0.4923	24351.702824375	24351.815583791	24351.998866625	24352.190692416	24352.400821083
24613.077447833337	5.35	0	24616.827447833337	5.347676124663849		24626.427364833336	24618.425123958	24618.427447833335	24626.427447833335	24618.425256041	24626.423593583	8.0	-0.54			3	6	1	0	18	16	-0.6	-0.4923	24351.702824375	24351.815583791	24351.998866625	24352.190692416	24352.400821083
24613.077447833337	5.35	1	24617.577447833337	5.347676124663849		24626.427364833336	24618.425123958	24618.427447833335	24626.427447833335	24618.425256041	24626.423593583	8.0	-0.52			3	6	1	0	18	16	-0.6	-0.4923	24351.702824375	24351.815583791	24351.998866625	24352.190692416	24352.400821083
24613.077447833337	5.35	0	24618.327447833337	5.347676124663849		24626.427364833336	24618.425123958	24618.427447833335	24626.427447833335	24618.425256041	24626.423593583	8.0	-0.64			3	6	1	0	18	16	-0.6	-0.4923	24351.702824375	24351.815583791	24351.998866625	24352.190692416	24352.400821083
24626.443302208336	5.35	0	24626.443302208336	5.348802166663518		24640.793213499335	24631.792104375	24631.793302208334	24640.793302208334	24631.792251916	24640.791330041	9.0	-0.51			3	6	1	0	19	16	-0.6	-0.4923	24351.702824375	24351.815583791	24351.998866625	24352.190692416	24352.400821083
24626.443302208336	5.35	0	24627.193302208336	5.348802166663518		24640.793213499335	24631.792104375	24631.793302208334	24640.793302208334	24631.792251916	24640.791330041	9.0	-0.57			3	6	1	0	19	16	-0.6	-0.4923	24351.702824375	24351.815583791	24351.998866625	24352.190692416	24352.400821083
24626.443302208336	5.35	0	24627.943302208336	5.348802166663518		24640.793213499335	24631.792104375	24631.793302208334	24640.793302208334	24631.792251916	24640.791330041	9.0	-0.53			3	6	1	0	19	16	-0.6	-0.4923	24351.702824375	24351.815583791	24351.998866625	24352.190692416	24352.400821083
24626.443302208336	5.35	0	24628.693302208336	5.348802166663518		24640.793213499335	24631.792104375	24631.793302208334	24640.793302208334	24631.792251916	24640.791330041	9.0	-0.54			3	6	1	0	19	16	-0.6	-0.4923	24351.702824375	24351.815583791	24351.998866625	24352.190692416	24352.400821083
24626.443302208336	5.35	0	24629.443302208336	5.348802166663518		24640.793213499335	24631.792104375	24631.793302208334	24640.793302208334	24631.792251916	24640.791330041	9.0	-0.53			3	6	1	0	19	16	-0.6	-0.4923	24351.702824375	24351.815583791	24351.998866625	24352.190692416	24352.400821083
24626.443302208336	5.35	0	24630.193302208336	5.348802166663518		24640.793213499335	24631.792104375	24631.793302208334	24640.793302208334	24631.792251916	24640.791330041	9.0	-0.51			3	6	1	0	19	16	-0.6	-0.4923	24351.702824375	24351.815583791	24351.998866625	24352.190692416	24352.400821083
24626.443302208336	5.35	1	24630.943302208336	5.348802166663518		24640.793213499335	24631.792104375	24631.793302208334	24640.793302208334	24631.792251916	24640.791330041	9.0	-0.52			3	6	1	0	19	16	-0.6	-0.4923	24351.702824375	24351.815583791	24351.998866625	24352.190692416	24352.400821083
24626.443302208336	5.35	0	24631.693302208336	5.348802166663518		24640.793213499335	24631.792104375	24631.793302208334	24640.793302208334	24631.792251916	24640.791330041	9.0	-0.59			3	6	1	0	19	16	-0.6	-0.4923	24351.702824375	24351.815583791	24351.998866625	24352.190692416	24352.400821083
24640.810713416337	5.35	0	24640.810713416337	5.347218833663646		24655.160624666336	24646.15793225	24646.160713416335	24655.160713416335	24646.1580225	24655.156440291	9.0	-0.58			3	5	1	0	20	16	-0.6	-0.4923	24351.702824375	24351.815583791	24351.998866625	24352.190692416	24352.400821083
24640.810713416337	5.35	0	24641.560713416337	5.347218833663646		24655.160624666336	24646.15793225	24646.160713416335	24655.160713416335	24646.1580225	24655.156440291	9.0	-0.58			3	5	1	0	20	16	-0.6	-0.4923	24351.702824375	24351.815583791	24351.998866625	24352.190692416	24352.400821083
24640.810713416337	5.35	0	24642.310713416337	5.347218833663646		24655.160624666336	24646.15793225	24646.160713416335	24655.160713416335	24646.1580225	24655.156440291	9.0	-0.6			3	5	1	0	20	16	-0.6	-0.4923	24351.702824375	24351.815583791	24351.998866625	24352.190692416	24352.400821083
24640.810713416337	5.35	0	24643.060713416337	5.347218833663646		24655.160624666336	24646.15793225	24646.160713416335	24655.160713416335	24646.1580225	24655.156440291	9.0	-0.59			3	5	1	0	20	16	-0.6	-0.4923	24351.702824375	24351.815583791	24351.998866625	24352.190692416	24352.400821083
24640.810713416337	5.35	0	24643.810713416337	5.347218833663646		24655.160624666336	24646.15793225	24646.160713416335	24655.160713416335	24646.1580225	24655.156440291	9.0	-0.57			3	5	1	0	20	16	-0.6	-0.4923	24351.702824375	24351.815583791	24351.998866625	24352.190692416	24352.400821083
24640.810713416337	5.35	1	24644.560713416337	5.347218833663646		24655.160624666336	24646.15793225	24646.160713416335	24655.160713416335	24646.1580225	24655.156440291	9.0	-0.57			3	5	1	0	20	16	-0.6	-0.4923	24351.702824375	24351.815583791	24351.998866625	24352.190692416	24352.400821083
24640.810713416337	5.35	0	24645.310713416337	5.347218833663646		24655.160624666336	24646.15793225	24646.160713416335	24655.160713416335	24646.1580225	24655.156440291	9.0	-0.63			3	5	1	0	20	16	-0.6	-0.4923	24351.702824375	24351.815583791	24351.998866625	24352.190692416	24352.400821083
24640.810713416337	5.35	0	24646.060713416337	5.347218833663646		24655.160624666336	24646.15793225	24646.160713416335	24655.160713416335	24646.1580225	24655.156440291	9.0	-0.58			3	5	1	0	20	16	-0.6	-0.4923	24351.702824375	24351.815583791	24351.998866625	24352.190692416	24352.400821083
24655.174999583338	5.35	0	24655.174999583338	5.348226999663893		24669.524911374338	24660.523226583	24660.524999583336	24669.524999583336	24660.52331175	24669.523340458	9.0	-0.63			3	6	1	0	21	16	-0.6	-0.4923	24351.702824375	24351.815583791	24351.998866625	24352.190692416	24352.400821083
24655.174999583338	5.35	0	24655.924999583338	5.348226999663893		24669.524911374338	24660.523226583	24660.524999583336	24669.524999583336	24660.52331175	24669.523340458	9.0	-0.6			3	6	1	0	21	16	-0.6	-0.4923	24351.702824375	24351.815583791	24351.998866625	24352.190692416	24352.400821083
24655.174999583338	5.35	0	24656.674999583338	5.348226999663893		24669.524911374338	24660.523226583	24660.524999583336	24669.524999583336	24660.52331175	24669.523340458	9.0	-0.6			3	6	1	0	21	16	-0.6	-0.4923	24351.702824375	24351.815583791	24351.998866625	24352.190692416	24352.400821083
24655.174999583338	5.35	0	24657.424999583338	5.348226999663893		24669.524911374338	24660.523226583	24660.524999583336	24669.524999583336	24660.52331175	24669.523340458	9.0	-0.59			3	6	1	0	21	16	-0.6	-0.4923	24351.702824375	24351.815583791	24351.998866625	24352.190692416	24352.400821083
24655.174999583338	5.35	0	24658.174999583338	5.348226999663893		24669.524911374338	24660.523226583	24660.524999583336	24669.524999583336	24660.52331175	24669.523340458	9.0	-0.63			3	6	1	0	21	16	-0.6	-0.4923	24351.702824375	24351.815583791	24351.998866625	24352.190692416	24352.400821083
24655.174999583338	5.35	0	24658.924999583338	5.348226999663893		24669.524911374338	24660.523226583	24660.524999583336	24669.524999583336	24660.52331175	24669.523340458	9.0	-0.57			3	6	1	0	21	16	-0.6	-0.4923	24351.702824375	24351.815583791	24351.998866625	24352.190692416	24352.400821083
24655.174999583338	5.35	1	24659.674999583338	5.348226999663893		24669.524911374338	24660.523226583	24660.524999583336	24669.524999583336	24660.52331175	24669.523340458	9.0	-0.51			3	6	1	0	21	16	-0.6	-0.4923	24351.702824375	24351.815583791	24351.998866625	24352.190692416	24352.400821083
24655.174999583338	5.35	0	24660.424999583338	5.348226999663893		24669.524911374338	24660.523226583	24660.524999583336	24669.524999583336	24660.52331175	24669.523340458	9.0	-0.58			3	6	1	0	21	16	-0.6	-0.4923	24351.702824375	24351.815583791	24351.998866625	24352.190692416	24352.400821083
24669.542723791335	5.35	0	24669.542723791335	5.34864237466536		24683.392637583336	24674.891366166	24674.892723791334	24683.392723791334	24674.891459541	24683.389919	8.5	-0.58			4	0	2	0	22	16	-0.6	-0.4923	24351.702824375	24351.815583791	24351.998866625	24352.190692416	24352.400821083
24669.542723791335	5.35	0	24670.292723791335	5.34864237466536		24683.392637583336	24674.891366166	24674.892723791334	24683.392723791334	24674.891459541	24683.389919	8.5	-0.57			4	0	2	0	22	16	-0.6	-0.4923	24351.702824375	24351.815583791	24351.998866625	24352.190692416	24352.400821083
24669.542723791335	5.35	0	24671.042723791335	5.34864237466536		24683.392637583336	24674.891366166	24674.892723791334	24683.392723791334	24674.891459541	24683.389919	8.5	-0.6			4	0	2	0	22	16	-0.6	-0.4923	24351.702824375	24351.815583791	24351.998866625	24352.190692416	24352.400821083
24669.542723791335	5.35	0	24671.792723791335	5.34864237466536		24683.392637583336	24674.891366166	24674.892723791334	24683.392723791334	24674.891459541	24683.389919	8.5	-0.55			4	0	2	0	22	16	-0.6	-0.4923	24351.702824375	24351.815583791	24351.998866625	24352.190692416	24352.400821083
24669.542723791335	5.35	0	24672.542723791335	5.34864237466536		24683.392637583336	24674.891366166	24674.892723791334	24683.392723791334	24674.891459541	24683.389919	8.5	-0.53			4	0	2	0	22	16	-0.6	-0.4923	24351.702824375	24351.815583791	24351.998866625	24352.190692416	24352.400821083
24669.542723791335	5.35	0	24673.292723791335	5.34864237466536		24683.392637583336	24674.891366166	24674.892723791334	24683.392723791334	24674.891459541	24683.389919	8.5	-0.51			4	0	2	0	22	16	-0.6	-0.4923	24351.702824375	24351.815583791	24351.998866625	24352.190692416	24352.400821083
24669.542723791335	5.35	0	24674.042723791335	5.34864237466536		24683.392637583336	24674.891366166	24674.892723791334	24683.392723791334	24674.891459541	24683.389919	8.5	-0.48			4	0	2	0	22	16	-0.6	-0.4923	24351.702824375	24351.815583791	24351.998866625	24352.190692416	24352.400821083
24669.542723791335	5.35	0	24674.792723791335	5.34864237466536		24683.392637583336	24674.891366166	24674.892723791334	24683.392723791334	24674.891459541	24683.389919	8.5	-0.48			4	0	2	0	22	16	-0.6	-0.4923	24351.702824375	24351.815583791	24351.998866625	24352.190692416	24352.400821083
24683.411074999338	5.35	0	24683.411074999338	5.345577708663768		24698.760981208336	24688.756652708	24688.761074999336	24698.761074999336	24688.756779791	24698.756351875	10.0	-0.48			3	2	0	0	23	16	-0.6	-0.4923	24351.702824375	24351.815583791	24351.998866625	24352.190692416	24352.400821083
24683.411074999338	5.35	0	24684.161074999338	5.345577708663768		24698.760981208336	24688.756652708	24688.761074999336	24698.761074999336	24688.756779791	24698.756351875	10.0	-0.54			3	2	0	0	23	16	-0.6	-0.4923	24351.702824375	24351.815583791	24351.998866625	24352.190692416	24352.400821083
24683.411074999338	5.35	1	24684.911074999338	5.345577708663768		24698.760981208336	24688.756652708	24688.761074999336	24698.761074999336	24688.756779791	24698.756351875	10.0	-0.43			3	2	0	0	23	16	-0.6	-0.4923	24351.702824375	24351.815583791	24351.998866625	24352.190692416	24352.400821083
24683.411074999338	5.35	0	24685.661074999338	5.345577708663768		24698.760981208336	24688.756652708	24688.761074999336	24698.761074999336	24688.756779791	24698.756351875	10.0	-0.59			3	2	0	0	23	16	-0.6	-0.4923	24351.702824375	24351.815583791	24351.998866625	24352.190692416	24352.400821083
24683.411074999338	5.35	0	24686.411074999338	5.345577708663768		24698.760981208336	24688.756652708	24688.761074999336	24698.761074999336	24688.756779791	24698.756351875	10.0	-0.56			3	2	0	0	23	16	-0.6	-0.4923	24351.702824375	24351.815583791	24351.998866625	24352.190692416	24352.400821083
24683.411074999338	5.35	0	24687.161074999338	5.345577708663768		24698.760981208336	24688.756652708	24688.761074999336	24698.761074999336	24688.756779791	24698.756351875	10.0	-0.57			3	2	0	0	23	16	-0.6	-0.4923	24351.702824375	24351.815583791	24351.998866625	24352.190692416	24352.400821083
24683.411074999338	5.35	0	24687.911074999338	5.345577708663768		24698.760981208336	24688.756652708	24688.761074999336	24698.761074999336	24688.756779791	24698.756351875	10.0	-0.56			3	2	0	0	23	16	-0.6	-0.4923	24351.702824375	24351.815583791	24351.998866625	24352.190692416	24352.400821083
24683.411074999338	5.35	0	24688.661074999338	5.345577708663768		24698.760981208336	24688.756652708	24688.761074999336	24698.761074999336	24688.756779791	24698.756351875	10.0	-0.59			3	2	0	0	23	16	-0.6	-0.4923	24351.702824375	24351.815583791	24351.998866625	24352.190692416	24352.400821083
24698.776293624338	5.35	0	24698.776293624338	5.346760416661709		24712.626208416335	24704.123054041	24704.126293624337	24712.626293624337	24704.123145	24712.624163916	8.5	-0.66			3	4	0	0	24	16	-0.6	-0.4923	24351.702824375	24351.815583791	24351.998866625	24352.190692416	24352.400821083
24698.776293624338	5.35	0	24699.526293624338	5.346760416661709		24712.626208416335	24704.123054041	24704.126293624337	24712.626293624337	24704.123145	24712.624163916	8.5	-0.64			3	4	0	0	24	16	-0.6	-0.4923	24351.702824375	24351.815583791	24351.998866625	24352.190692416	24352.400821083
24698.776293624338	5.35	0	24700.276293624338	5.346760416661709		24712.626208416335	24704.123054041	24704.126293624337	24712.626293624337	24704.123145	24712.624163916	8.5	-0.62			3	4	0	0	24	16	-0.6	-0.4923	24351.702824375	24351.815583791	24351.998866625	24352.190692416	24352.400821083
24698.776293624338	5.35	0	24701.026293624338	5.346760416661709		24712.626208416335	24704.123054041	24704.126293624337	24712.626293624337	24704.123145	24712.624163916	8.5	-0.65			3	4	0	0	24	16	-0.6	-0.4923	24351.702824375	24351.815583791	24351.998866625	24352.190692416	24352.400821083
24698.776293624338	5.35	1	24701.776293624338	5.346760416661709		24712.626208416335	24704.123054041	24704.126293624337	24712.626293624337	24704.123145	24712.624163916	8.5	-0.39			3	4	0	0	24	16	-0.6	-0.4923	24351.702824375	24351.815583791	24351.998866625	24352.190692416	24352.400821083
24698.776293624338	5.35	0	24702.526293624338	5.346760416661709		24712.626208416335	24704.123054041	24704.126293624337	24712.626293624337	24704.123145	24712.624163916	8.5	-0.63			3	4	0	0	24	16	-0.6	-0.4923	24351.702824375	24351.815583791	24351.998866625	24352.190692416	24352.400821083
24698.776293624338	5.35	0	24703.276293624338	5.346760416661709		24712.626208416335	24704.123054041	24704.126293624337	24712.626293624337	24704.123145	24712.624163916	8.5	-0.64			3	4	0	0	24	16	-0.6	-0.4923	24351.702824375	24351.815583791	24351.998866625	24352.190692416	24352.400821083
24698.776293624338	5.35	0	24704.026293624338	5.346760416661709		24712.626208416335	24704.123054041	24704.126293624337	24712.626293624337	24704.123145	24712.624163916	8.5	-0.67			3	4	0	0	24	16	-0.6	-0.4923	24351.702824375	24351.815583791	24351.998866625	24352.190692416	24352.400821083
24712.642458291335	5.35	0	24712.642458291335	5.348649083665805		24729.492356208335	24717.991107375	24717.992458291334	24729.492458291334	24717.991209875	24729.490418583	11.5	-0.62			3	2	0	0	25	16	-0.6	-0.4923	24351.702824375	24351.815583791	24351.998866625	24352.190692416	24352.400821083
24712.642458291335	5.35	0	24713.392458291335	5.348649083665805		24729.492356208335	24717.991107375	24717.992458291334	24729.492458291334	24717.991209875	24729.490418583	11.5	-0.62			3	2	0	0	25	16	-0.6	-0.4923	24351.702824375	24351.815583791	24351.998866625	24352.190692416	24352.400821083
24712.642458291335	5.35	1	24714.142458291335	5.348649083665805		24729.492356208335	24717.991107375	24717.992458291334	24729.492458291334	24717.991209875	24729.490418583	11.5	-0.37			3	2	0	0	25	16	-0.6	-0.4923	24351.702824375	24351.815583791	24351.998866625	24352.190692416	24352.400821083
24712.642458291335	5.35	0	24714.892458291335	5.348649083665805		24729.492356208335	24717.991107375	24717.992458291334	24729.492458291334	24717.991209875	24729.490418583	11.5	-0.66			3	2	0	0	25	16	-0.6	-0.4923	24351.702824375	24351.815583791	24351.998866625	24352.190692416	24352.400821083
24712.642458291335	5.35	0	24715.642458291335	5.348649083665805		24729.492356208335	24717.991107375	24717.992458291334	24729.492458291334	24717.991209875	24729.490418583	11.5	-0.61			3	2	0	0	25	16	-0.6	-0.4923	24351.702824375	24351.815583791	24351.998866625	24352.190692416	24352.400821083
24712.642458291335	5.35	0	24716.392458291335	5.348649083665805		24729.492356208335	24717.991107375	24717.992458291334	24729.492458291334	24717.991209875	24729.490418583	11.5	-0.62			3	2	0	0	25	16	-0.6	-0.4923	24351.702824375	24351.815583791	24351.998866625	24352.190692416	24352.400821083
24712.642458291335	5.35	0	24717.142458291335	5.348649083665805		24729.492356208335	24717.991107375	24717.992458291334	24729.492458291334	24717.991209875	24729.490418583	11.5	-0.6			3	2	0	0	25	16	-0.6	-0.4923	24351.702824375	24351.815583791	24351.998866625	24352.190692416	24352.400821083
24712.642458291335	5.35	0	24717.892458291335	5.348649083665805		24729.492356208335	24717.991107375	24717.992458291334	24729.492458291334	24717.991209875	24729.490418583	11.5	-0.64			3	2	0	0	25	16	-0.6	-0.4923	24351.702824375	24351.815583791	24351.998866625	24352.190692416	24352.400821083
24729.508918624335	5.35	0	24729.508918624335	5.349312541664403		24743.358834499337	24734.858231166	24734.858918624333	24743.358918624333	24734.858328666	24743.357477833	8.5	-0.61			3	3	0	0	26	16	-0.6	-0.4923	24351.702824375	24351.815583791	24351.998866625	24352.190692416	24352.400821083
24729.508918624335	5.35	0	24730.258918624335	5.349312541664403		24743.358834499337	24734.858231166	24734.858918624333	24743.358918624333	24734.858328666	24743.357477833	8.5	-0.65			3	3	0	0	26	16	-0.6	-0.4923	24351.702824375	24351.815583791	24351.998866625	24352.190692416	24352.400821083
24729.508918624335	5.35	0	24731.008918624335	5.349312541664403		24743.358834499337	24734.858231166	24734.858918624333	24743.358918624333	24734.858328666	24743.357477833	8.5	-0.64			3	3	0	0	26	16	-0.6	-0.4923	24351.702824375	24351.815583791	24351.998866625	24352.190692416	24352.400821083
24729.508918624335	5.35	1	24731.758918624335	5.349312541664403		24743.358834499337	24734.858231166	24734.858918624333	24743.358918624333	24734.858328666	24743.357477833	8.5	-0.42			3	3	0	0	26	16	-0.6	-0.4923	24351.702824375	24351.815583791	24351.998866625	24352.190692416	24352.400821083
24729.508918624335	5.35	0	24732.508918624335	5.349312541664403		24743.358834499337	24734.858231166	24734.858918624333	24743.358918624333	24734.858328666	24743.357477833	8.5	-0.66			3	3	0	0	26	16	-0.6	-0.4923	24351.702824375	24351.815583791	24351.998866625	24352.190692416	24352.400821083
24729.508918624335	5.35	0	24733.258918624335	5.349312541664403		24743.358834499337	24734.858231166	24734.858918624333	24743.358918624333	24734.858328666	24743.357477833	8.5	-0.66			3	3	0	0	26	16	-0.6	-0.4923	24351.702824375	24351.815583791	24351.998866625	24352.190692416	24352.400821083
24729.508918624335	5.35	0	24734.008918624335	5.349312541664403		24743.358834499337	24734.858231166	24734.858918624333	24743.358918624333	24734.858328666	24743.357477833	8.5	-0.62			3	3	0	0	26	16	-0.6	-0.4923	24351.702824375	24351.815583791	24351.998866625	24352.190692416	24352.400821083
24729.508918624335	5.35	0	24734.758918624335	5.349312541664403		24743.358834499337	24734.858231166	24734.858918624333	24743.358918624333	24734.858328666	24743.357477833	8.5	-0.65			3	3	0	0	26	16	-0.6	-0.4923	24351.702824375	24351.815583791	24351.998866625	24352.190692416	24352.400821083
24743.37695937434	5.35	0	24743.37695937434	5.34597104166096		24755.726884041338	24748.722930416	24748.726959374337	24755.726959374337	24748.723019166	24755.723837375	7.0	-0.64			3	4	0	0	27	16	-0.6	-0.4923	24351.702824375	24351.815583791	24351.998866625	24352.190692416	24352.400821083
24743.37695937434	5.35	0	24744.12695937434	5.34597104166096		24755.726884041338	24748.722930416	24748.726959374337	24755.726959374337	24748.723019166	24755.723837375	7.0	-0.64			3	4	0	0	27	16	-0.6	-0.4923	24351.702824375	24351.815583791	24351.998866625	24352.190692416	24352.400821083
24743.37695937434	5.35	0	24744.87695937434	5.34597104166096		24755.726884041338	24748.722930416	24748.726959374337	24755.726959374337	24748.723019166	24755.723837375	7.0	-0.62			3	4	0	0	27	16	-0.6	-0.4923	24351.702824375	24351.815583791	24351.998866625	24352.190692416	24352.400821083
24743.37695937434	5.35	0	24745.62695937434	5.34597104166096		24755.726884041338	24748.722930416	24748.726959374337	24755.726959374337	24748.723019166	24755.723837375	7.0	-0.63			3	4	0	0	27	16	-0.6	-0.4923	24351.702824375	24351.815583791	24351.998866625	24352.190692416	24352.400821083
24743.37695937434	5.35	1	24746.37695937434	5.34597104166096		24755.726884041338	24748.722930416	24748.726959374337	24755.726959374337	24748.723019166	24755.723837375	7.0	-0.44			3	4	0	0	27	16	-0.6	-0.4923	24351.702824375	24351.815583791	24351.998866625	24352.190692416	24352.400821083
24743.37695937434	5.35	0	24747.12695937434	5.34597104166096		24755.726884041338	24748.722930416	24748.726959374337	24755.726959374337	24748.723019166	24755.723837375	7.0	-0.65			3	4	0	0	27	16	-0.6	-0.4923	24351.702824375	24351.815583791	24351.998866625	24352.190692416	24352.400821083
24743.37695937434	5.35	0	24747.87695937434	5.34597104166096		24755.726884041338	24748.722930416	24748.726959374337	24755.726959374337	24748.723019166	24755.723837375	7.0	-0.66			3	4	0	0	27	16	-0.6	-0.4923	24351.702824375	24351.815583791	24351.998866625	24352.190692416	24352.400821083
24743.37695937434	5.35	0	24748.62695937434	5.34597104166096		24755.726884041338	24748.722930416	24748.726959374337	24755.726959374337	24748.723019166	24755.723837375	7.0	-0.62			3	4	0	0	27	16	-0.6	-0.4923	24351.702824375	24351.815583791	24351.998866625	24352.190692416	24352.400821083
24755.742196458337	5.35	0	24755.742196458337	5.347513874661672		24772.092094624335	24761.089710333	24761.092196458336	24772.092196458336	24761.089852916	24772.086234708	11.0	-0.52			3	2	0	0	28	16	-0.6	-0.4923	24351.702824375	24351.815583791	24351.998866625	24352.190692416	24352.400821083
24755.742196458337	5.35	0	24756.492196458337	5.347513874661672		24772.092094624335	24761.089710333	24761.092196458336	24772.092196458336	24761.089852916	24772.086234708	11.0	-0.46			3	2	0	0	28	16	-0.6	-0.4923	24351.702824375	24351.815583791	24351.998866625	24352.190692416	24352.400821083
24755.742196458337	5.35	1	24757.242196458337	5.347513874661672		24772.092094624335	24761.089710333	24761.092196458336	24772.092196458336	24761.089852916	24772.086234708	11.0	-0.44			3	2	0	0	28	16	-0.6	-0.4923	24351.702824375	24351.815583791	24351.998866625	24352.190692416	24352.400821083
24755.742196458337	5.35	0	24757.992196458337	5.347513874661672		24772.092094624335	24761.089710333	24761.092196458336	24772.092196458336	24761.089852916	24772.086234708	11.0	-0.53			3	2	0	0	28	16	-0.6	-0.4923	24351.702824375	24351.815583791	24351.998866625	24352.190692416	24352.400821083
24755.742196458337	5.35	0	24758.742196458337	5.347513874661672		24772.092094624335	24761.089710333	24761.092196458336	24772.092196458336	24761.089852916	24772.086234708	11.0	-0.51			3	2	0	0	28	16	-0.6	-0.4923	24351.702824375	24351.815583791	24351.998866625	24352.190692416	24352.400821083
24755.742196458337	5.35	0	24759.492196458337	5.347513874661672		24772.092094624335	24761.089710333	24761.092196458336	24772.092196458336	24761.089852916	24772.086234708	11.0	-0.55			3	2	0	0	28	16	-0.6	-0.4923	24351.702824375	24351.815583791	24351.998866625	24352.190692416	24352.400821083
24755.742196458337	5.35	0	24760.242196458337	5.347513874661672		24772.092094624335	24761.089710333	24761.092196458336	24772.092196458336	24761.089852916	24772.086234708	11.0	-0.57			3	2	0	0	28	16	-0.6	-0.4923	24351.702824375	24351.815583791	24351.998866625	24352.190692416	24352.400821083
24755.742196458337	5.35	0	24760.992196458337	5.347513874661672		24772.092094624335	24761.089710333	24761.092196458336	24772.092196458336	24761.089852916	24772.086234708	11.0	-0.54			3	2	0	0	28	16	-0.6	-0.4923	24351.702824375	24351.815583791	24351.998866625	24352.190692416	24352.400821083
24772.105532041336	5.35	0	24772.105532041336	5.347271833663399		24785.455448666336	24777.452803875	24777.455532041335	24785.455532041335	24777.452935916	24785.452739291	8.0	-0.42			3	4	0	0	29	16	-0.6	-0.4923	24351.702824375	24351.815583791	24351.998866625	24352.190692416	24352.400821083
24772.105532041336	5.35	0	24772.855532041336	5.347271833663399		24785.455448666336	24777.452803875	24777.455532041335	24785.455532041335	24777.452935916	24785.452739291	8.0	-0.43			3	4	0	0	29	16	-0.6	-0.4923	24351.702824375	24351.815583791	24351.998866625	24352.190692416	24352.400821083
24772.105532041336	5.35	0	24773.605532041336	5.347271833663399		24785.455448666336	24777.452803875	24777.455532041335	24785.455532041335	24777.452935916	24785.452739291	8.0	-0.46			3	4	0	0	29	16	-0.6	-0.4923	24351.702824375	24351.815583791	24351.998866625	24352.190692416	24352.400821083
24772.105532041336	5.35	0	24774.355532041336	5.347271833663399		24785.455448666336	24777.452803875	24777.455532041335	24785.455532041335	24777.452935916	24785.452739291	8.0	-0.45			3	4	0	0	29	16	-0.6	-0.4923	24351.702824375	24351.815583791	24351.998866625	24352.190692416	24352.400821083
24772.105532041336	5.35	1	24775.105532041336	5.347271833663399		24785.455448666336	24777.452803875	24777.455532041335	24785.455532041335	24777.452935916	24785.452739291	8.0	-0.5			3	4	0	0	29	16	-0.6	-0.4923	24351.702824375	24351.815583791	24351.998866625	24352.190692416	24352.400821083
24772.105532041336	5.35	0	24775.855532041336	5.347271833663399		24785.455448666336	24777.452803875	24777.455532041335	24785.455532041335	24777.452935916	24785.452739291	8.0	-0.5			3	4	0	0	29	16	-0.6	-0.4923	24351.702824375	24351.815583791	24351.998866625	24352.190692416	24352.400821083
24772.105532041336	5.35	0	24776.605532041336	5.347271833663399		24785.455448666336	24777.452803875	24777.455532041335	24785.455532041335	24777.452935916	24785.452739291	8.0	-0.5			3	4	0	0	29	16	-0.6	-0.4923	24351.702824375	24351.815583791	24351.998866625	24352.190692416	24352.400821083
24772.105532041336	5.35	0	24777.355532041336	5.347271833663399		24785.455448666336	24777.452803875	24777.455532041335	24785.455532041335	24777.452935916	24785.452739291	8.0	-0.48			3	4	0	0	29	16	-0.6	-0.4923	24351.702824375	24351.815583791	24351.998866625	24352.190692416	24352.400821083
24785.472011041336	5.35	0	24785.472011041336	5.347318541662389		24802.321904624336	24790.819329583	24790.822011041335	24802.322011041335	24790.819420958	24802.319409375	11.5	-0.61			3	2	0	0	30	16	-0.6	-0.4923	24351.702824375	24351.815583791	24351.998866625	24352.190692416	24352.400821083
24785.472011041336	5.35	0	24786.222011041336	5.347318541662389		24802.321904624336	24790.819329583	24790.822011041335	24802.322011041335	24790.819420958	24802.319409375	11.5	-0.57			3	2	0	0	30	16	-0.6	-0.4923	24351.702824375	24351.815583791	24351.998866625	24352.190692416	24352.400821083
24785.472011041336	5.35	1	24786.972011041336	5.347318541662389		24802.321904624336	24790.819329583	24790.822011041335	24802.322011041335	24790.819420958	24802.319409375	11.5	-0.48			3	2	0	0	30	16	-0.6	-0.4923	24351.702824375	24351.815583791	24351.998866625	24352.190692416	24352.400821083
24785.472011041336	5.35	0	24787.722011041336	5.347318541662389		24802.321904624336	24790.819329583	24790.822011041335	24802.322011041335	24790.819420958	24802.319409375	11.5	-0.64			3	2	0	0	30	16	-0.6	-0.4923	24351.702824375	24351.815583791	24351.998866625	24352.190692416	24352.400821083
24785.472011041336	5.35	0	24788.472011041336	5.347318541662389		24802.321904624336	24790.819329583	24790.822011041335	24802.322011041335	24790.819420958	24802.319409375	11.5	-0.64			3	2	0	0	30	16	-0.6	-0.4923	24351.702824375	24351.815583791	24351.998866625	24352.190692416	24352.400821083
24785.472011041336	5.35	0	24789.222011041336	5.347318541662389		24802.321904624336	24790.819329583	24790.822011041335	24802.322011041335	24790.819420958	24802.319409375	11.5	-0.63			3	2	0	0	30	16	-0.6	-0.4923	24351.702824375	24351.815583791	24351.998866625	24352.190692416	24352.400821083
24785.472011041336	5.35	0	24789.972011041336	5.347318541662389		24802.321904624336	24790.819329583	24790.822011041335	24802.322011041335	24790.819420958	24802.319409375	11.5	-0.61			3	2	0	0	30	16	-0.6	-0.4923	24351.702824375	24351.815583791	24351.998866625	24352.190692416	24352.400821083
24785.472011041336	5.35	0	24790.722011041336	5.347318541662389		24802.321904624336	24790.819329583	24790.822011041335	24802.322011041335	24790.819420958	24802.319409375	11.5	-0.64			3	2	0	0	30	16	-0.6	-0.4923	24351.702824375	24351.815583791	24351.998866625	24352.190692416	24352.400821083
24802.338779541336	5.35	0	24802.338779541336	5.346774333662324		24815.188699874336	24807.685553875	24807.688779541335	24815.188779541335	24807.685644833	24815.185852875	7.5	-0.62			3	3	0	0	31	16	-0.6	-0.4923	24351.702824375	24351.815583791	24351.998866625	24352.190692416	24352.400821083
24802.338779541336	5.35	0	24803.088779541336	5.346774333662324		24815.188699874336	24807.685553875	24807.688779541335	24815.188779541335	24807.685644833	24815.185852875	7.5	-0.58			3	3	0	0	31	16	-0.6	-0.4923	24351.702824375	24351.815583791	24351.998866625	24352.190692416	24352.400821083
24802.338779541336	5.35	0	24803.838779541336	5.346774333662324		24815.188699874336	24807.685553875	24807.688779541335	24815.188779541335	24807.685644833	24815.185852875	7.5	-0.57			3	3	0	0	31	16	-0.6	-0.4923	24351.702824375	24351.815583791	24351.998866625	24352.190692416	24352.400821083
24802.338779541336	5.35	1	24804.588779541336	5.346774333662324		24815.188699874336	24807.685553875	24807.688779541335	24815.188779541335	24807.685644833	24815.185852875	7.5	-0.49			3	3	0	0	31	16	-0.6	-0.4923	24351.702824375	24351.815583791	24351.998866625	24352.190692416	24352.400821083
24802.338779541336	5.35	0	24805.338779541336	5.346774333662324		24815.188699874336	24807.685553875	24807.688779541335	24815.188779541335	24807.685644833	24815.185852875	7.5	-0.55			3	3	0	0	31	16	-0.6	-0.4923	24351.702824375	24351.815583791	24351.998866625	24352.190692416	24352.400821083
24802.338779541336	5.35	0	24806.088779541336	5.346774333662324		24815.188699874336	24807.685553875	24807.688779541335	24815.188779541335	24807.685644833	24815.185852875	7.5	-0.57			3	3	0	0	31	16	-0.6	-0.4923	24351.702824375	24351.815583791	24351.998866625	24352.190692416	24352.400821083
24802.338779541336	5.35	0	24806.838779541336	5.346774333662324		24815.188699874336	24807.685553875	24807.688779541335	24815.188779541335	24807.685644833	24815.185852875	7.5	-0.58			3	3	0	0	31	16	-0.6	-0.4923	24351.702824375	24351.815583791	24351.998866625	24352.190692416	24352.400821083
24802.338779541336	5.35	0	24807.588779541336	5.346774333662324		24815.188699874336	24807.685553875	24807.688779541335	24815.188779541335	24807.685644833	24815.185852875	7.5	-0.57			3	3	0	0	31	16	-0.6	-0.4923	24351.702824375	24351.815583791	24351.998866625	24352.190692416	24352.400821083
24815.205574791336	5.35	0	24815.205574791336	5.349812208663934		24829.055488708338	24820.555387	24820.555574791335	24829.055574791335	24820.555505375	24829.052367958	8.5	-0.62			4	0	2	0	32	16	-0.6	-0.4923	24351.702824375	24351.815583791	24351.998866625	24352.190692416	24352.400821083
24815.205574791336	5.35	0	24815.955574791336	5.349812208663934		24829.055488708338	24820.555387	24820.555574791335	24829.055574791335	24820.555505375	24829.052367958	8.5	-0.66			4	0	2	0	32	16	-0.6	-0.4923	24351.702824375	24351.815583791	24351.998866625	24352.190692416	24352.400821083
24815.205574791336	5.35	0	24816.705574791336	5.349812208663934		24829.055488708338	24820.555387	24820.555574791335	24829.055574791335	24820.555505375	24829.052367958	8.5	-0.59			4	0	2	0	32	16	-0.6	-0.4923	24351.702824375	24351.815583791	24351.998866625	24352.190692416	24352.400821083
24815.205574791336	5.35	0	24817.455574791336	5.349812208663934		24829.055488708338	24820.555387	24820.555574791335	24829.055574791335	24820.555505375	24829.052367958	8.5	-0.63			4	0	2	0	32	16	-0.6	-0.4923	24351.702824375	24351.815583791	24351.998866625	24352.190692416	24352.400821083
24815.205574791336	5.35	0	24818.205574791336	5.349812208663934		24829.055488708338	24820.555387	24820.555574791335	24829.055574791335	24820.555505375	24829.052367958	8.5	-0.62			4	0	2	0	32	16	-0.6	-0.4923	24351.702824375	24351.815583791	24351.998866625	24352.190692416	24352.400821083
24815.205574791336	5.35	0	24818.955574791336	5.349812208663934		24829.055488708338	24820.555387	24820.555574791335	24829.055574791335	24820.555505375	24829.052367958	8.5	-0.57			4	0	2	0	32	16	-0.6	-0.4923	24351.702824375	24351.815583791	24351.998866625	24352.190692416	24352.400821083
24815.205574791336	5.35	0	24819.705574791336	5.349812208663934		24829.055488708338	24820.555387	24820.555574791335	24829.055574791335	24820.555505375	24829.052367958	8.5	-0.57			4	0	2	0	32	16	-0.6	-0.4923	24351.702824375	24351.815583791	24351.998866625	24352.190692416	24352.400821083
24815.205574791336	5.35	0	24820.455574791336	5.349812208663934		24829.055488708338	24820.555387	24820.555574791335	24829.055574791335	24820.555505375	24829.052367958	8.5	-0.52			4	0	2	0	32	16	-0.6	-0.4923	24351.702824375	24351.815583791	24351.998866625	24352.190692416	24352.400821083
24829.072051083338	5.35	0	24829.072051083338	5.3469966246630065		24842.921965583337	24834.419047708	24834.422051083337	24842.922051083337	24834.419190833	24842.919156291	8.5	-0.68			3	5	1	0	33	16	-0.6	-0.4923	24351.702824375	24351.815583791	24351.998866625	24352.190692416	24352.400821083
24829.072051083338	5.35	0	24829.822051083338	5.3469966246630065		24842.921965583337	24834.419047708	24834.422051083337	24842.922051083337	24834.419190833	24842.919156291	8.5	-0.65			3	5	1	0	33	16	-0.6	-0.4923	24351.702824375	24351.815583791	24351.998866625	24352.190692416	24352.400821083
24829.072051083338	5.35	0	24830.572051083338	5.3469966246630065		24842.921965583337	24834.419047708	24834.422051083337	24842.922051083337	24834.419190833	24842.919156291	8.5	-0.66			3	5	1	0	33	16	-0.6	-0.4923	24351.702824375	24351.815583791	24351.998866625	24352.190692416	24352.400821083
24829.072051083338	5.35	0	24831.322051083338	5.3469966246630065		24842.921965583337	24834.419047708	24834.422051083337	24842.922051083337	24834.419190833	24842.919156291	8.5	-0.64			3	5	1	0	33	16	-0.6	-0.4923	24351.702824375	24351.815583791	24351.998866625	24352.190692416	24352.400821083
24829.072051083338	5.35	0	24832.072051083338	5.3469966246630065		24842.921965583337	24834.419047708	24834.422051083337	24842.922051083337	24834.419190833	24842.919156291	8.5	-0.65			3	5	1	0	33	16	-0.6	-0.4923	24351.702824375	24351.815583791	24351.998866625	24352.190692416	24352.400821083
24829.072051083338	5.35	1	24832.822051083338	5.3469966246630065		24842.921965583337	24834.419047708	24834.422051083337	24842.922051083337	24834.419190833	24842.919156291	8.5	-0.52			3	5	1	0	33	16	-0.6	-0.4923	24351.702824375	24351.815583791	24351.998866625	24352.190692416	24352.400821083
24829.072051083338	5.35	0	24833.572051083338	5.3469966246630065		24842.921965583337	24834.419047708	24834.422051083337	24842.922051083337	24834.419190833	24842.919156291	8.5	-0.69			3	5	1	0	33	16	-0.6	-0.4923	24351.702824375	24351.815583791	24351.998866625	24352.190692416	24352.400821083
24829.072051083338	5.35	0	24834.322051083338	5.3469966246630065		24842.921965583337	24834.419047708	24834.422051083337	24842.922051083337	24834.419190833	24842.919156291	8.5	-0.68			3	5	1	0	33	16	-0.6	-0.4923	24351.702824375	24351.815583791	24351.998866625	24352.190692416	24352.400821083
24842.938215458336	5.35	0	24842.938215458336	5.346921166663378		24855.788135291335	24848.285136625	24848.288215458335	24855.788215458335	24848.285231833	24855.78548525	7.5	-0.53			3	4	0	0	34	16	-0.6	-0.4923	24351.702824375	24351.815583791	24351.998866625	24352.190692416	24352.400821083
24842.938215458336	5.35	0	24843.688215458336	5.346921166663378		24855.788135291335	24848.285136625	24848.288215458335	24855.788215458335	24848.285231833	24855.78548525	7.5	-0.59			3	4	0	0	34	16	-0.6	-0.4923	24351.702824375	24351.815583791	24351.998866625	24352.190692416	24352.400821083
24842.938215458336	5.35	0	24844.438215458336	5.346921166663378		24855.788135291335	24848.285136625	24848.288215458335	24855.788215458335	24848.285231833	24855.78548525	7.5	-0.59			3	4	0	0	34	16	-0.6	-0.4923	24351.702824375	24351.815583791	24351.998866625	24352.190692416	24352.400821083
24842.938215458336	5.35	0	24845.188215458336	5.346921166663378		24855.788135291335	24848.285136625	24848.288215458335	24855.788215458335	24848.285231833	24855.78548525	7.5	-0.59			3	4	0	0	34	16	-0.6	-0.4923	24351.702824375	24351.815583791	24351.998866625	24352.190692416	24352.400821083
24842.938215458336	5.35	1	24845.938215458336	5.346921166663378		24855.788135291335	24848.285136625	24848.288215458335	24855.788215458335	24848.285231833	24855.78548525	7.5	-0.47			3	4	0	0	34	16	-0.6	-0.4923	24351.702824375	24351.815583791	24351.998866625	24352.190692416	24352.400821083
24842.938215458336	5.35	0	24846.688215458336	5.346921166663378		24855.788135291335	24848.285136625	24848.288215458335	24855.788215458335	24848.285231833	24855.78548525	7.5	-0.64			3	4	0	0	34	16	-0.6	-0.4923	24351.702824375	24351.815583791	24351.998866625	24352.190692416	24352.400821083
24842.938215458336	5.35	0	24847.438215458336	5.346921166663378		24855.788135291335	24848.285136625	24848.288215458335	24855.788215458335	24848.285231833	24855.78548525	7.5	-0.59			3	4	0	0	34	16	-0.6	-0.4923	24351.702824375	24351.815583791	24351.998866625	24352.190692416	24352.400821083
24842.938215458336	5.35	0	24848.188215458336	5.346921166663378		24855.788135291335	24848.285136625	24848.288215458335	24855.788215458335	24848.285231833	24855.78548525	7.5	-0.61			3	4	0	0	34	16	-0.6	-0.4923	24351.702824375	24351.815583791	24351.998866625	24352.190692416	24352.400821083
24855.805010166336	5.35	0	24855.805010166336	5.3473097086643975		24870.654916166335	24861.152319875	24861.155010166334	24870.655010166334	24861.152451333	24870.652084791	9.5	-0.7			3	3	0	0	35	16	-0.6	-0.4923	24351.702824375	24351.815583791	24351.998866625	24352.190692416	24352.400821083
24855.805010166336	5.35	0	24856.555010166336	5.3473097086643975		24870.654916166335	24861.152319875	24861.155010166334	24870.655010166334	24861.152451333	24870.652084791	9.5	-0.69			3	3	0	0	35	16	-0.6	-0.4923	24351.702824375	24351.815583791	24351.998866625	24352.190692416	24352.400821083
24855.805010166336	5.35	0	24857.305010166336	5.3473097086643975		24870.654916166335	24861.152319875	24861.155010166334	24870.655010166334	24861.152451333	24870.652084791	9.5	-0.71			3	3	0	0	35	16	-0.6	-0.4923	24351.702824375	24351.815583791	24351.998866625	24352.190692416	24352.400821083
24855.805010166336	5.35	1	24858.055010166336	5.3473097086643975		24870.654916166335	24861.152319875	24861.155010166334	24870.655010166334	24861.152451333	24870.652084791	9.5	-0.46			3	3	0	0	35	16	-0.6	-0.4923	24351.702824375	24351.815583791	24351.998866625	24352.190692416	24352.400821083
24855.805010166336	5.35	0	24858.805010166336	5.3473097086643975		24870.654916166335	24861.152319875	24861.155010166334	24870.655010166334	24861.152451333	24870.652084791	9.5	-0.66			3	3	0	0	35	16	-0.6	-0.4923	24351.702824375	24351.815583791	24351.998866625	24352.190692416	24352.400821083
24855.805010166336	5.35	0	24859.555010166336	5.3473097086643975		24870.654916166335	24861.152319875	24861.155010166334	24870.655010166334	24861.152451333	24870.652084791	9.5	-0.68			3	3	0	0	35	16	-0.6	-0.4923	24351.702824375	24351.815583791	24351.998866625	24352.190692416	24352.400821083
24855.805010166336	5.35	0	24860.305010166336	5.3473097086643975		24870.654916166335	24861.152319875	24861.155010166334	24870.655010166334	24861.152451333	24870.652084791	9.5	-0.67			3	3	0	0	35	16	-0.6	-0.4923	24351.702824375	24351.815583791	24351.998866625	24352.190692416	24352.400821083
24855.805010166336	5.35	0	24861.055010166336	5.3473097086643975		24870.654916166335	24861.152319875	24861.155010166334	24870.655010166334	24861.152451333	24870.652084791	9.5	-0.71			3	3	0	0	35	16	-0.6	-0.4923	24351.702824375	24351.815583791	24351.998866625	24352.190692416	24352.400821083
24870.671478583336	5.35	0	24870.671478583336	5.347350249663577		24884.52139170834	24876.018828833	24876.021478583334	24884.521478583334	24876.018970833	24884.518907333	8.5	-0.66			3	2	0	0	36	16	-0.6	-0.4923	24351.702824375	24351.815583791	24351.998866625	24352.190692416	24352.400821083
24870.671478583336	5.35	0	24871.421478583336	5.347350249663577		24884.52139170834	24876.018828833	24876.021478583334	24884.521478583334	24876.018970833	24884.518907333	8.5	-0.67			3	2	0	0	36	16	-0.6	-0.4923	24351.702824375	24351.815583791	24351.998866625	24352.190692416	24352.400821083
24870.671478583336	5.35	1	24872.171478583336	5.347350249663577		24884.52139170834	24876.018828833	24876.021478583334	24884.521478583334	24876.018970833	24884.518907333	8.5	-0.41			3	2	0	0	36	16	-0.6	-0.4923	24351.702824375	24351.815583791	24351.998866625	24352.190692416	24352.400821083
24870.671478583336	5.35	0	24872.921478583336	5.347350249663577		24884.52139170834	24876.018828833	24876.021478583334	24884.521478583334	24876.018970833	24884.518907333	8.5	-0.63			3	2	0	0	36	16	-0.6	-0.4923	24351.702824375	24351.815583791	24351.998866625	24352.190692416	24352.400821083
24870.671478583336	5.35	0	24873.671478583336	5.347350249663577		24884.52139170834	24876.018828833	24876.021478583334	24884.521478583334	24876.018970833	24884.518907333	8.5	-0.63			3	2	0	0	36	16	-0.6	-0.4923	24351.702824375	24351.815583791	24351.998866625	24352.190692416	24352.400821083
24870.671478583336	5.35	0	24874.421478583336	5.347350249663577		24884.52139170834	24876.018828833	24876.021478583334	24884.521478583334	24876.018970833	24884.518907333	8.5	-0.61			3	2	0	0	36	16	-0.6	-0.4923	24351.702824375	24351.815583791	24351.998866625	24352.190692416	24352.400821083
24870.671478583336	5.35	0	24875.171478583336	5.347350249663577		24884.52139170834	24876.018828833	24876.021478583334	24884.521478583334	24876.018970833	24884.518907333	8.5	-0.6			3	2	0	0	36	16	-0.6	-0.4923	24351.702824375	24351.815583791	24351.998866625	24352.190692416	24352.400821083
24870.671478583336	5.35	0	24875.921478583336	5.347350249663577		24884.52139170834	24876.018828833	24876.021478583334	24884.521478583334	24876.018970833	24884.518907333	8.5	-0.57			3	2	0	0	36	16	-0.6	-0.4923	24351.702824375	24351.815583791	24351.998866625	24352.190692416	24352.400821083
24884.538579083335	5.35	0	24884.538579083335	5.346519207665551		24899.38848654134	24889.885098291	24889.888579083334	24899.388579083334	24889.88519225	24899.385429083	9.5	-0.59			3	4	0	0	37	16	-0.6	-0.4923	24351.702824375	24351.815583791	24351.998866625	24352.190692416	24352.400821083
24884.538579083335	5.35	0	24885.288579083335	5.346519207665551		24899.38848654134	24889.885098291	24889.888579083334	24899.388579083334	24889.88519225	24899.385429083	9.5	-0.63			3	4	0	0	37	16	-0.6	-0.4923	24351.702824375	24351.815583791	24351.998866625	24352.190692416	24352.400821083
24884.538579083335	5.35	0	24886.038579083335	5.346519207665551		24899.38848654134	24889.885098291	24889.888579083334	24899.388579083334	24889.88519225	24899.385429083	9.5	-0.61			3	4	0	0	37	16	-0.6	-0.4923	24351.702824375	24351.815583791	24351.998866625	24352.190692416	24352.400821083
24884.538579083335	5.35	0	24886.788579083335	5.346519207665551		24899.38848654134	24889.885098291	24889.888579083334	24899.388579083334	24889.88519225	24899.385429083	9.5	-0.62			3	4	0	0	37	16	-0.6	-0.4923	24351.702824375	24351.815583791	24351.998866625	24352.190692416	24352.400821083
24884.538579083335	5.35	1	24887.538579083335	5.346519207665551		24899.38848654134	24889.885098291	24889.888579083334	24899.388579083334	24889.88519225	24899.385429083	9.5	-0.33			3	4	0	0	37	16	-0.6	-0.4923	24351.702824375	24351.815583791	24351.998866625	24352.190692416	24352.400821083
24884.538579083335	5.35	0	24888.288579083335	5.346519207665551		24899.38848654134	24889.885098291	24889.888579083334	24899.388579083334	24889.88519225	24899.385429083	9.5	-0.63			3	4	0	0	37	16	-0.6	-0.4923	24351.702824375	24351.815583791	24351.998866625	24352.190692416	24352.400821083
24884.538579083335	5.35	0	24889.038579083335	5.346519207665551		24899.38848654134	24889.885098291	24889.888579083334	24899.388579083334	24889.88519225	24899.385429083	9.5	-0.63			3	4	0	0	37	16	-0.6	-0.4923	24351.702824375	24351.815583791	24351.998866625	24352.190692416	24352.400821083
24884.538579083335	5.35	0	24889.788579083335	5.346519207665551		24899.38848654134	24889.885098291	24889.888579083334	24899.388579083334	24889.88519225	24899.385429083	9.5	-0.67			3	4	0	0	37	16	-0.6	-0.4923	24351.702824375	24351.815583791	24351.998866625	24352.190692416	24352.400821083
24899.404736416338	5.35	0	24899.404736416338	5.349985791661311		24913.754647083337	24904.754722208	24904.754736416337	24913.754736416337	24904.754871791	24913.751991958	9.0	-0.68			3	3	0	0	38	16	-0.6	-0.4923	24351.702824375	24351.815583791	24351.998866625	24352.190692416	24352.400821083
24899.404736416338	5.35	0	24900.154736416338	5.349985791661311		24913.754647083337	24904.754722208	24904.754736416337	24913.754736416337	24904.754871791	24913.751991958	9.0	-0.69			3	3	0	0	38	16	-0.6	-0.4923	24351.702824375	24351.815583791	24351.998866625	24352.190692416	24352.400821083
24899.404736416338	5.35	0	24900.904736416338	5.349985791661311		24913.754647083337	24904.754722208	24904.754736416337	24913.754736416337	24904.754871791	24913.751991958	9.0	-0.7			3	3	0	0	38	16	-0.6	-0.4923	24351.702824375	24351.815583791	24351.998866625	24352.190692416	24352.400821083
24899.404736416338	5.35	1	24901.654736416338	5.349985791661311		24913.754647083337	24904.754722208	24904.754736416337	24913.754736416337	24904.754871791	24913.751991958	9.0	-0.46			3	3	0	0	38	16	-0.6	-0.4923	24351.702824375	24351.815583791	24351.998866625	24352.190692416	24352.400821083
24899.404736416338	5.35	0	24902.404736416338	5.349985791661311		24913.754647083337	24904.754722208	24904.754736416337	24913.754736416337	24904.754871791	24913.751991958	9.0	-0.72			3	3	0	0	38	16	-0.6	-0.4923	24351.702824375	24351.815583791	24351.998866625	24352.190692416	24352.400821083
24899.404736416338	5.35	0	24903.154736416338	5.349985791661311		24913.754647083337	24904.754722208	24904.754736416337	24913.754736416337	24904.754871791	24913.751991958	9.0	-0.68			3	3	0	0	38	16	-0.6	-0.4923	24351.702824375	24351.815583791	24351.998866625	24352.190692416	24352.400821083
24899.404736416338	5.35	0	24903.904736416338	5.349985791661311		24913.754647083337	24904.754722208	24904.754736416337	24913.754736416337	24904.754871791	24913.751991958	9.0	-0.68			3	3	0	0	38	16	-0.6	-0.4923	24351.702824375	24351.815583791	24351.998866625	24352.190692416	24352.400821083
24899.404736416338	5.35	0	24904.654736416338	5.349985791661311		24913.754647083337	24904.754722208	24904.754736416337	24913.754736416337	24904.754871791	24913.751991958	9.0	-0.67			3	3	0	0	38	16	-0.6	-0.4923	24351.702824375	24351.815583791	24351.998866625	24352.190692416	24352.400821083
24913.771521999337	5.35	0	24913.771521999337	5.347102791663929		24926.62235849934	24919.118624791	24919.121521999336	24926.621521999336	24919.118770625	24926.618250458	7.5	-0.67			3	4	0	0	39	16	-0.6	-0.4923	24351.702824375	24351.815583791	24351.998866625	24352.190692416	24352.400821083
24913.771521999337	5.35	0	24914.521521999337	5.347102791663929		24926.62235849934	24919.118624791	24919.121521999336	24926.621521999336	24919.118770625	24926.618250458	7.5	-0.67			3	4	0	0	39	16	-0.6	-0.4923	24351.702824375	24351.815583791	24351.998866625	24352.190692416	24352.400821083
24913.771521999337	5.35	0	24915.271521999337	5.347102791663929		24926.62235849934	24919.118624791	24919.121521999336	24926.621521999336	24919.118770625	24926.618250458	7.5	-0.65			3	4	0	0	39	16	-0.6	-0.4923	24351.702824375	24351.815583791	24351.998866625	24352.190692416	24352.400821083
24913.771521999337	5.35	0	24916.021521999337	5.347102791663929		24926.62235849934	24919.118624791	24919.121521999336	24926.621521999336	24919.118770625	24926.618250458	7.5	-0.6			3	4	0	0	39	16	-0.6	-0.4923	24351.702824375	24351.815583791	24351.998866625	24352.190692416	24352.400821083
24913.771521999337	5.35	1	24916.771521999337	5.347102791663929		24926.62235849934	24919.118624791	24919.121521999336	24926.621521999336	24919.118770625	24926.618250458	7.5	-0.44			3	4	0	0	39	16	-0.6	-0.4923	24351.702824375	24351.815583791	24351.998866625	24352.190692416	24352.400821083
24913.771521999337	5.35	0	24917.521521999337	5.347102791663929		24926.62235849934	24919.118624791	24919.121521999336	24926.621521999336	24919.118770625	24926.618250458	7.5	-0.62			3	4	0	0	39	16	-0.6	-0.4923	24351.702824375	24351.815583791	24351.998866625	24352.190692416	24352.400821083
24913.771521999337	5.35	0	24918.271521999337	5.347102791663929		24926.62235849934	24919.118624791	24919.121521999336	24926.621521999336	24919.118770625	24926.618250458	7.5	-0.64			3	4	0	0	39	16	-0.6	-0.4923	24351.702824375	24351.815583791	24351.998866625	24352.190692416	24352.400821083
24913.771521999337	5.35	0	24919.021521999337	5.347102791663929		24926.62235849934	24919.118624791	24919.121521999336	24926.621521999336	24919.118770625	24926.618250458	7.5	-0.64			3	4	0	0	39	16	-0.6	-0.4923	24351.702824375	24351.815583791	24351.998866625	24352.190692416	24352.400821083
24926.637670916338	5.35	0	24926.637670916338	5.3499283746605215		24939.487590708337	24931.987599291	24931.987670916336	24939.487670916336	24931.987679125	24939.485044	7.5	-0.67			3	4	0	0	40	16	-0.6	-0.4923	24351.702824375	24351.815583791	24351.998866625	24352.190692416	24352.400821083
24926.637670916338	5.35	0	24927.387670916338	5.3499283746605215		24939.487590708337	24931.987599291	24931.987670916336	24939.487670916336	24931.987679125	24939.485044	7.5	-0.68			3	4	0	0	40	16	-0.6	-0.4923	24351.702824375	24351.815583791	24351.998866625	24352.190692416	24352.400821083
24926.637670916338	5.35	0	24928.137670916338	5.3499283746605215		24939.487590708337	24931.987599291	24931.987670916336	24939.487670916336	24931.987679125	24939.485044	7.5	-0.68			3	4	0	0	40	16	-0.6	-0.4923	24351.702824375	24351.815583791	24351.998866625	24352.190692416	24352.400821083
24926.637670916338	5.35	0	24928.887670916338	5.3499283746605215		24939.487590708337	24931.987599291	24931.987670916336	24939.487670916336	24931.987679125	24939.485044	7.5	-0.71			3	4	0	0	40	16	-0.6	-0.4923	24351.702824375	24351.815583791	24351.998866625	24352.190692416	24352.400821083
24926.637670916338	5.35	1	24929.637670916338	5.3499283746605215		24939.487590708337	24931.987599291	24931.987670916336	24939.487670916336	24931.987679125	24939.485044	7.5	-0.47			3	4	0	0	40	16	-0.6	-0.4923	24351.702824375	24351.815583791	24351.998866625	24352.190692416	24352.400821083
24926.637670916338	5.35	0	24930.387670916338	5.3499283746605215		24939.487590708337	24931.987599291	24931.987670916336	24939.487670916336	24931.987679125	24939.485044	7.5	-0.66			3	4	0	0	40	16	-0.6	-0.4923	24351.702824375	24351.815583791	24351.998866625	24352.190692416	24352.400821083
24926.637670916338	5.35	0	24931.137670916338	5.3499283746605215		24939.487590708337	24931.987599291	24931.987670916336	24939.487670916336	24931.987679125	24939.485044	7.5	-0.7			3	4	0	0	40	16	-0.6	-0.4923	24351.702824375	24351.815583791	24351.998866625	24352.190692416	24352.400821083
24926.637670916338	5.35	0	24931.887670916338	5.3499283746605215		24939.487590708337	24931.987599291	24931.987670916336	24939.487670916336	24931.987679125	24939.485044	7.5	-0.66			3	4	0	0	40	16	-0.6	-0.4923	24351.702824375	24351.815583791	24351.998866625	24352.190692416	24352.400821083
24939.505090583338	5.35	0	24939.505090583338	5.347359374663938		24954.35545920834	24944.852449958	24944.855090583336	24954.355090583336	24944.852553291	24954.351879833	9.5	-0.54			3	3	0	0	41	16	-0.6	-0.4923	24351.702824375	24351.815583791	24351.998866625	24352.190692416	24352.400821083
24939.505090583338	5.35	0	24940.255090583338	5.347359374663938		24954.35545920834	24944.852449958	24944.855090583336	24954.355090583336	24944.852553291	24954.351879833	9.5	-0.51			3	3	0	0	41	16	-0.6	-0.4923	24351.702824375	24351.815583791	24351.998866625	24352.190692416	24352.400821083
24939.505090583338	5.35	0	24941.005090583338	5.347359374663938		24954.35545920834	24944.852449958	24944.855090583336	24954.355090583336	24944.852553291	24954.351879833	9.5	-0.56			3	3	0	0	41	16	-0.6	-0.4923	24351.702824375	24351.815583791	24351.998866625	24352.190692416	24352.400821083
24939.505090583338	5.35	1	24941.755090583338	5.347359374663938		24954.35545920834	24944.852449958	24944.855090583336	24954.355090583336	24944.852553291	24954.351879833	9.5	-0.5			3	3	0	0	41	16	-0.6	-0.4923	24351.702824375	24351.815583791	24351.998866625	24352.190692416	24352.400821083
24939.505090583338	5.35	0	24942.505090583338	5.347359374663938		24954.35545920834	24944.852449958	24944.855090583336	24954.355090583336	24944.852553291	24954.351879833	9.5	-0.6			3	3	0	0	41	16	-0.6	-0.4923	24351.702824375	24351.815583791	24351.998866625	24352.190692416	24352.400821083
24939.505090583338	5.35	0	24943.255090583338	5.347359374663938		24954.35545920834	24944.852449958	24944.855090583336	24954.355090583336	24944.852553291	24954.351879833	9.5	-0.58			3	3	0	0	41	16	-0.6	-0.4923	24351.702824375	24351.815583791	24351.998866625	24352.190692416	24352.400821083
24939.505090583338	5.35	0	24944.005090583338	5.347359374663938		24954.35545920834	24944.852449958	24944.855090583336	24954.355090583336	24944.852553291	24954.351879833	9.5	-0.61			3	3	0	0	41	16	-0.6	-0.4923	24351.702824375	24351.815583791	24351.998866625	24352.190692416	24352.400821083
24939.505090583338	5.35	0	24944.755090583338	5.347359374663938		24954.35545920834	24944.852449958	24944.855090583336	24954.355090583336	24944.852553291	24954.351879833	9.5	-0.64			3	3	0	0	41	16	-0.6	-0.4923	24351.702824375	24351.815583791	24351.998866625	24352.190692416	24352.400821083
24954.371396708335	5.35	0	24954.371396708335	5.34681637466565		24969.721308416338	24959.718213083	24959.721396708333	24969.721396708333	24959.718312916	24969.718331666	10.0	-0.64			3	2	0	0	42	16	-0.6	-0.4923	24351.702824375	24351.815583791	24351.998866625	24352.190692416	24352.400821083
24954.371396708335	5.35	0	24955.121396708335	5.34681637466565		24969.721308416338	24959.718213083	24959.721396708333	24969.721396708333	24959.718312916	24969.718331666	10.0	-0.65			3	2	0	0	42	16	-0.6	-0.4923	24351.702824375	24351.815583791	24351.998866625	24352.190692416	24352.400821083
24954.371396708335	5.35	1	24955.871396708335	5.34681637466565		24969.721308416338	24959.718213083	24959.721396708333	24969.721396708333	24959.718312916	24969.718331666	10.0	-0.49			3	2	0	0	42	16	-0.6	-0.4923	24351.702824375	24351.815583791	24351.998866625	24352.190692416	24352.400821083
24954.371396708335	5.35	0	24956.621396708335	5.34681637466565		24969.721308416338	24959.718213083	24959.721396708333	24969.721396708333	24959.718312916	24969.718331666	10.0	-0.55			3	2	0	0	42	16	-0.6	-0.4923	24351.702824375	24351.815583791	24351.998866625	24352.190692416	24352.400821083
24954.371396708335	5.35	0	24957.371396708335	5.34681637466565		24969.721308416338	24959.718213083	24959.721396708333	24969.721396708333	24959.718312916	24969.718331666	10.0	-0.57			3	2	0	0	42	16	-0.6	-0.4923	24351.702824375	24351.815583791	24351.998866625	24352.190692416	24352.400821083
24954.371396708335	5.35	0	24958.121396708335	5.34681637466565		24969.721308416338	24959.718213083	24959.721396708333	24969.721396708333	24959.718312916	24969.718331666	10.0	-0.6			3	2	0	0	42	16	-0.6	-0.4923	24351.702824375	24351.815583791	24351.998866625	24352.190692416	24352.400821083
24954.371396708335	5.35	0	24958.871396708335	5.34681637466565		24969.721308416338	24959.718213083	24959.721396708333	24969.721396708333	24959.718312916	24969.718331666	10.0	-0.59			3	2	0	0	42	16	-0.6	-0.4923	24351.702824375	24351.815583791	24351.998866625	24352.190692416	24352.400821083
24954.371396708335	5.35	0	24959.621396708335	5.34681637466565		24969.721308416338	24959.718213083	24959.721396708333	24969.721396708333	24959.718312916	24969.718331666	10.0	-0.54			3	2	0	0	42	16	-0.6	-0.4923	24351.702824375	24351.815583791	24351.998866625	24352.190692416	24352.400821083
24969.737870833338	5.35	0	24969.737870833338	5.346877874661004		24984.087787791337	24975.084748708	24975.087870833337	24984.087870833337	24975.08483425	24984.086363583	9.0	-0.58			3	3	0	0	43	16	-0.6	-0.4923	24351.702824375	24351.815583791	24351.998866625	24352.190692416	24352.400821083
24969.737870833338	5.35	0	24970.487870833338	5.346877874661004		24984.087787791337	24975.084748708	24975.087870833337	24984.087870833337	24975.08483425	24984.086363583	9.0	-0.58			3	3	0	0	43	16	-0.6	-0.4923	24351.702824375	24351.815583791	24351.998866625	24352.190692416	24352.400821083
24969.737870833338	5.35	0	24971.237870833338	5.346877874661004		24984.087787791337	24975.084748708	24975.087870833337	24984.087870833337	24975.08483425	24984.086363583	9.0	-0.57			3	3	0	0	43	16	-0.6	-0.4923	24351.702824375	24351.815583791	24351.998866625	24352.190692416	24352.400821083
