onset	onset_tone	duration	duration_getsecs	offset_trial	offset_sound	offset_sound_getsecs	onset_iti	onset_iti_getsecs	offset_iti	offset_iti_getsecs	ITI	rt_getsecs_trial	rt_getsecs_dev	rt_slider_getsecs	tau_std	frequency	lim_std	lim_dev	key_pressed	correct	confidence	rule	dpos	trial_type	is_catch_n_minus_one	catch_key	catch_correct	catch_rt	runs	trial_no
490522.29539175	490522.29539175	5.35	5.338856209011283	490533.646147875	490527.64539175	490527.634247959	490527.64539175	490527.64733025	490533.64539175	490533.646864417	6	5.43596970901126	0.9359697090112604	0.33901445794617757	160	635.42	-0.6	-0.399	l	1	5	1	6	0	0				0	0
490522.29539175	490523.04539175	5.35	5.338856209011283	490533.646147875	490527.64539175	490527.634247959	490527.64539175	490527.64733025	490533.64539175	490533.646864417	6	5.43596970901126	0.9359697090112604	0.33901445794617757	160	633.35	-0.6	-0.399	l	1	5	1	6	0	0				0	0
490522.29539175	490523.79539175	5.35	5.338856209011283	490533.646147875	490527.64539175	490527.634247959	490527.64539175	490527.64733025	490533.64539175	490533.646864417	6	5.43596970901126	0.9359697090112604	0.33901445794617757	160	633.8	-0.6	-0.399	l	1	5	1	6	0	0				0	0
490522.29539175	490524.54539175	5.35	5.338856209011283	490533.646147875	490527.64539175	490527.634247959	490527.64539175	490527.64733025	490533.64539175	490533.646864417	6	5.43596970901126	0.9359697090112604	0.33901445794617757	160	632.69	-0.6	-0.399	l	1	5	1	6	0	0				0	0
490522.29539175	490525.29539175	5.35	5.338856209011283	490533.646147875	490527.64539175	490527.634247959	490527.64539175	490527.64733025	490533.64539175	490533.646864417	6	5.43596970901126	0.9359697090112604	0.33901445794617757	160	636.59	-0.6	-0.399	l	1	5	1	6	0	0				0	0
490522.29539175	490526.04539175	5.35	5.338856209011283	490533.646147875	490527.64539175	490527.634247959	490527.64539175	490527.64733025	490533.64539175	490533.646864417	6	5.43596970901126	0.9359697090112604	0.33901445794617757	160	634.58	-0.6	-0.399	l	1	5	1	6	0	0				0	0
490522.29539175	490526.79539175	5.35	5.338856209011283	490533.646147875	490527.64539175	490527.634247959	490527.64539175	490527.64733025	490533.64539175	490533.646864417	6	5.43596970901126	0.9359697090112604	0.33901445794617757	160	671.58	-0.6	-0.399	l	1	5	1	6	1	0				0	0
490522.29539175	490527.54539175	5.35	5.338856209011283	490533.646147875	490527.64539175	490527.634247959	490527.64539175	490527.64733025	490533.64539175	490533.646864417	6	5.43596970901126	0.9359697090112604	0.33901445794617757	160	637.87	-0.6	-0.399	l	1	5	1	6	0	0				0	0
490533.653335375	490533.653335375	5.35	5.343878916988615	490545.00327887497	490539.003335375	490538.997214292	490539.003335375	490539.006242375	490545.003335375	490545.013895834	6	5.344689708959777	0.8446897089597769	0.4943282500025816	160	632.63	-0.6	-0.399	l	1	5	1	6	0	0				0	1
490533.653335375	490534.403335375	5.35	5.343878916988615	490545.00327887497	490539.003335375	490538.997214292	490539.003335375	490539.006242375	490545.003335375	490545.013895834	6	5.344689708959777	0.8446897089597769	0.4943282500025816	160	645.87	-0.6	-0.399	l	1	5	1	6	0	0				0	1
490533.653335375	490535.153335375	5.35	5.343878916988615	490545.00327887497	490539.003335375	490538.997214292	490539.003335375	490539.006242375	490545.003335375	490545.013895834	6	5.344689708959777	0.8446897089597769	0.4943282500025816	160	639.24	-0.6	-0.399	l	1	5	1	6	0	0				0	1
490533.653335375	490535.903335375	5.35	5.343878916988615	490545.00327887497	490539.003335375	490538.997214292	490539.003335375	490539.006242375	490545.003335375	490545.013895834	6	5.344689708959777	0.8446897089597769	0.4943282500025816	160	648.86	-0.6	-0.399	l	1	5	1	6	0	0				0	1
490533.653335375	490536.653335375	5.35	5.343878916988615	490545.00327887497	490539.003335375	490538.997214292	490539.003335375	490539.006242375	490545.003335375	490545.013895834	6	5.344689708959777	0.8446897089597769	0.4943282500025816	160	651.69	-0.6	-0.399	l	1	5	1	6	0	0				0	1
490533.653335375	490537.403335375	5.35	5.343878916988615	490545.00327887497	490539.003335375	490538.997214292	490539.003335375	490539.006242375	490545.003335375	490545.013895834	6	5.344689708959777	0.8446897089597769	0.4943282500025816	160	653.51	-0.6	-0.399	l	1	5	1	6	0	0				0	1
490533.653335375	490538.153335375	5.35	5.343878916988615	490545.00327887497	490539.003335375	490538.997214292	490539.003335375	490539.006242375	490545.003335375	490545.013895834	6	5.344689708959777	0.8446897089597769	0.4943282500025816	160	684.82	-0.6	-0.399	l	1	5	1	6	1	0				0	1
490533.653335375	490538.903335375	5.35	5.343878916988615	490545.00327887497	490539.003335375	490538.997214292	490539.003335375	490539.006242375	490545.003335375	490545.013895834	6	5.344689708959777	0.8446897089597769	0.4943282500025816	160	643.15	-0.6	-0.399	l	1	5	1	6	0	0				0	1
490545.019841291	490545.019841291	5.35	5.348417168017477	490556.369785458	490550.369841291	490550.368258459	490550.369841291	490550.380347417	490556.369841291	490556.380222667	6	3.6450447509996593	1.3950447509996593	0.2945277909748256	160	644.47	-0.6	-0.399	y	1	5	0	3	0	0				0	2
490545.019841291	490545.769841291	5.35	5.348417168017477	490556.369785458	490550.369841291	490550.368258459	490550.369841291	490550.380347417	490556.369841291	490556.380222667	6	3.6450447509996593	1.3950447509996593	0.2945277909748256	160	646.76	-0.6	-0.399	y	1	5	0	3	0	0				0	2
490545.019841291	490546.519841291	5.35	5.348417168017477	490556.369785458	490550.369841291	490550.368258459	490550.369841291	490550.380347417	490556.369841291	490556.380222667	6	3.6450447509996593	1.3950447509996593	0.2945277909748256	160	643.62	-0.6	-0.399	y	1	5	0	3	0	0				0	2
490545.019841291	490547.269841291	5.35	5.348417168017477	490556.369785458	490550.369841291	490550.368258459	490550.369841291	490550.380347417	490556.369841291	490556.380222667	6	3.6450447509996593	1.3950447509996593	0.2945277909748256	160	671.62	-0.6	-0.399	y	1	5	0	3	1	0				0	2
490545.019841291	490548.019841291	5.35	5.348417168017477	490556.369785458	490550.369841291	490550.368258459	490550.369841291	490550.380347417	490556.369841291	490556.380222667	6	3.6450447509996593	1.3950447509996593	0.2945277909748256	160	651.45	-0.6	-0.399	y	1	5	0	3	0	0				0	2
490545.019841291	490548.769841291	5.35	5.348417168017477	490556.369785458	490550.369841291	490550.368258459	490550.369841291	490550.380347417	490556.369841291	490556.380222667	6	3.6450447509996593	1.3950447509996593	0.2945277909748256	160	638.84	-0.6	-0.399	y	1	5	0	3	0	0				0	2
490545.019841291	490549.519841291	5.35	5.348417168017477	490556.369785458	490550.369841291	490550.368258459	490550.369841291	490550.380347417	490556.369841291	490556.380222667	6	3.6450447509996593	1.3950447509996593	0.2945277909748256	160	646.69	-0.6	-0.399	y	1	5	0	3	0	0				0	2
490545.019841291	490550.269841291	5.35	5.348417168017477	490556.369785458	490550.369841291	490550.368258459	490550.369841291	490550.380347417	490556.369841291	490556.380222667	6	3.6450447509996593	1.3950447509996593	0.2945277909748256	160	646.79	-0.6	-0.399	y	1	5	0	3	0	0				0	2
490560.384453291	490560.384453291	5.35	5.34972287598066	490571.734399166	490565.734453291	490565.734176167	490565.734453291	490565.746504834	490571.734453291	490571.746759542	6			0.45928687503328547	160	644.38	-0.6	-0.399		3	5	0	2	0	1	v	1	1.039108542026952	0	3
490560.384453291	490561.134453291	5.35	5.34972287598066	490571.734399166	490565.734453291	490565.734176167	490565.734453291	490565.746504834	490571.734453291	490571.746759542	6			0.45928687503328547	160	646.29	-0.6	-0.399		3	5	0	2	0	1	v	1	1.039108542026952	0	3
490560.384453291	490561.884453291	5.35	5.34972287598066	490571.734399166	490565.734453291	490565.734176167	490565.734453291	490565.746504834	490571.734453291	490571.746759542	6			0.45928687503328547	160	658.41	-0.6	-0.399		3	5	0	2	1	1	v	1	1.039108542026952	0	3
490560.384453291	490562.634453291	5.35	5.34972287598066	490571.734399166	490565.734453291	490565.734176167	490565.734453291	490565.746504834	490571.734453291	490571.746759542	6			0.45928687503328547	160	641.41	-0.6	-0.399		3	5	0	2	0	1	v	1	1.039108542026952	0	3
490560.384453291	490563.384453291	5.35	5.34972287598066	490571.734399166	490565.734453291	490565.734176167	490565.734453291	490565.746504834	490571.734453291	490571.746759542	6			0.45928687503328547	160	651.29	-0.6	-0.399		3	5	0	2	0	1	v	1	1.039108542026952	0	3
490560.384453291	490564.134453291	5.35	5.34972287598066	490571.734399166	490565.734453291	490565.734176167	490565.734453291	490565.746504834	490571.734453291	490571.746759542	6			0.45928687503328547	160	652.76	-0.6	-0.399		3	5	0	2	0	1	v	1	1.039108542026952	0	3
490560.384453291	490564.884453291	5.35	5.34972287598066	490571.734399166	490565.734453291	490565.734176167	490565.734453291	490565.746504834	490571.734453291	490571.746759542	6			0.45928687503328547	160	645.86	-0.6	-0.399		3	5	0	2	0	1	v	1	1.039108542026952	0	3
490560.384453291	490565.634453291	5.35	5.34972287598066	490571.734399166	490565.734453291	490565.734176167	490565.734453291	490565.746504834	490571.734453291	490571.746759542	6			0.45928687503328547	160	637.93	-0.6	-0.399		3	5	0	2	0	1	v	1	1.039108542026952	0	3
490571.752836541	490571.752836541	5.35	5.3487339180428535	490583.102782333	490577.10283654096	490577.101570459	490577.10283654096	490577.112794625	490583.10283654096	490583.1137185	6			0.6104813750134781	160	636.71	-0.6	-0.399		3	5	0	3	0	0				0	4
490571.752836541	490572.502836541	5.35	5.3487339180428535	490583.102782333	490577.10283654096	490577.101570459	490577.10283654096	490577.112794625	490583.10283654096	490583.1137185	6			0.6104813750134781	160	642.04	-0.6	-0.399		3	5	0	3	0	0				0	4
490571.752836541	490573.252836541	5.35	5.3487339180428535	490583.102782333	490577.10283654096	490577.101570459	490577.10283654096	490577.112794625	490583.10283654096	490583.1137185	6			0.6104813750134781	160	642.35	-0.6	-0.399		3	5	0	3	0	0				0	4
490571.752836541	490574.002836541	5.35	5.3487339180428535	490583.102782333	490577.10283654096	490577.101570459	490577.10283654096	490577.112794625	490583.10283654096	490583.1137185	6			0.6104813750134781	160	646.06	-0.6	-0.399		3	5	0	3	1	0				0	4
490571.752836541	490574.752836541	5.35	5.3487339180428535	490583.102782333	490577.10283654096	490577.101570459	490577.10283654096	490577.112794625	490583.10283654096	490583.1137185	6			0.6104813750134781	160	646.98	-0.6	-0.399		3	5	0	3	0	0				0	4
490571.752836541	490575.502836541	5.35	5.3487339180428535	490583.102782333	490577.10283654096	490577.101570459	490577.10283654096	490577.112794625	490583.10283654096	490583.1137185	6			0.6104813750134781	160	646.0	-0.6	-0.399		3	5	0	3	0	0				0	4
490571.752836541	490576.252836541	5.35	5.3487339180428535	490583.102782333	490577.10283654096	490577.101570459	490577.10283654096	490577.112794625	490583.10283654096	490583.1137185	6			0.6104813750134781	160	648.81	-0.6	-0.399		3	5	0	3	0	0				0	4
490571.752836541	490577.002836541	5.35	5.3487339180428535	490583.102782333	490577.10283654096	490577.101570459	490577.10283654096	490577.112794625	490583.10283654096	490583.1137185	6			0.6104813750134781	160	645.66	-0.6	-0.399		3	5	0	3	0	0				0	4
490583.11965725	490583.11965725	5.35	5.34754766698461	490594.46960175	490588.46965725	490588.467204917	490588.46965725	490588.480192334	490594.46965725	490594.479417709	6	3.4320501670008525	1.9320501670008525	0.33068208303302526	160	647.18	-0.6	-0.399	y	0	5	0	2	0	0				0	5
490583.11965725	490583.86965725	5.35	5.34754766698461	490594.46960175	490588.46965725	490588.467204917	490588.46965725	490588.480192334	490594.46965725	490594.479417709	6	3.4320501670008525	1.9320501670008525	0.33068208303302526	160	651.02	-0.6	-0.399	y	0	5	0	2	0	0				0	5
490583.11965725	490584.61965725	5.35	5.34754766698461	490594.46960175	490588.46965725	490588.467204917	490588.46965725	490588.480192334	490594.46965725	490594.479417709	6	3.4320501670008525	1.9320501670008525	0.33068208303302526	160	646.53	-0.6	-0.399	y	0	5	0	2	1	0				0	5
490583.11965725	490585.36965725	5.35	5.34754766698461	490594.46960175	490588.46965725	490588.467204917	490588.46965725	490588.480192334	490594.46965725	490594.479417709	6	3.4320501670008525	1.9320501670008525	0.33068208303302526	160	655.73	-0.6	-0.399	y	0	5	0	2	0	0				0	5
490583.11965725	490586.11965725	5.35	5.34754766698461	490594.46960175	490588.46965725	490588.467204917	490588.46965725	490588.480192334	490594.46965725	490594.479417709	6	3.4320501670008525	1.9320501670008525	0.33068208303302526	160	657.31	-0.6	-0.399	y	0	5	0	2	0	0				0	5
490583.11965725	490586.86965725	5.35	5.34754766698461	490594.46960175	490588.46965725	490588.467204917	490588.46965725	490588.480192334	490594.46965725	490594.479417709	6	3.4320501670008525	1.9320501670008525	0.33068208303302526	160	661.9	-0.6	-0.399	y	0	5	0	2	0	0				0	5
490583.11965725	490587.61965725	5.35	5.34754766698461	490594.46960175	490588.46965725	490588.467204917	490588.46965725	490588.480192334	490594.46965725	490594.479417709	6	3.4320501670008525	1.9320501670008525	0.33068208303302526	160	659.75	-0.6	-0.399	y	0	5	0	2	0	0				0	5
490583.11965725	490588.36965725	5.35	5.34754766698461	490594.46960175	490588.46965725	490588.467204917	490588.46965725	490588.480192334	490594.46965725	490594.479417709	6	3.4320501670008525	1.9320501670008525	0.33068208303302526	160	661.7	-0.6	-0.399	y	0	5	0	2	0	0				0	5
490598.483644791	490598.483644791	5.35	5.346591750974767	490609.833590333	490603.833644791	490603.830236542	490603.833644791	490603.834939792	490609.833644791	490609.833954042	6	4.897598918003496	1.8975989180034958	0.27785320801194757	160	656.77	-0.6	-0.399	y	0	5	0	4	0	1	l	0	0.9200436250539497	0	6
490598.483644791	490599.233644791	5.35	5.346591750974767	490609.833590333	490603.833644791	490603.830236542	490603.833644791	490603.834939792	490609.833644791	490609.833954042	6	4.897598918003496	1.8975989180034958	0.27785320801194757	160	659.61	-0.6	-0.399	y	0	5	0	4	0	1	l	0	0.9200436250539497	0	6
490598.483644791	490599.983644791	5.35	5.346591750974767	490609.833590333	490603.833644791	490603.830236542	490603.833644791	490603.834939792	490609.833644791	490609.833954042	6	4.897598918003496	1.8975989180034958	0.27785320801194757	160	653.69	-0.6	-0.399	y	0	5	0	4	0	1	l	0	0.9200436250539497	0	6
490598.483644791	490600.733644791	5.35	5.346591750974767	490609.833590333	490603.833644791	490603.830236542	490603.833644791	490603.834939792	490609.833644791	490609.833954042	6	4.897598918003496	1.8975989180034958	0.27785320801194757	160	652.79	-0.6	-0.399	y	0	5	0	4	0	1	l	0	0.9200436250539497	0	6
490598.483644791	490601.483644791	5.35	5.346591750974767	490609.833590333	490603.833644791	490603.830236542	490603.833644791	490603.834939792	490609.833644791	490609.833954042	6	4.897598918003496	1.8975989180034958	0.27785320801194757	160	655.39	-0.6	-0.399	y	0	5	0	4	1	1	l	0	0.9200436250539497	0	6
490598.483644791	490602.233644791	5.35	5.346591750974767	490609.833590333	490603.833644791	490603.830236542	490603.833644791	490603.834939792	490609.833644791	490609.833954042	6	4.897598918003496	1.8975989180034958	0.27785320801194757	160	650.3	-0.6	-0.399	y	0	5	0	4	0	1	l	0	0.9200436250539497	0	6
490598.483644791	490602.983644791	5.35	5.346591750974767	490609.833590333	490603.833644791	490603.830236542	490603.833644791	490603.834939792	490609.833644791	490609.833954042	6	4.897598918003496	1.8975989180034958	0.27785320801194757	160	660.05	-0.6	-0.399	y	0	5	0	4	0	1	l	0	0.9200436250539497	0	6
490598.483644791	490603.733644791	5.35	5.346591750974767	490609.833590333	490603.833644791	490603.830236542	490603.833644791	490603.834939792	490609.833644791	490609.833954042	6	4.897598918003496	1.8975989180034958	0.27785320801194757	160	660.2	-0.6	-0.399	y	0	5	0	4	0	1	l	0	0.9200436250539497	0	6
490609.839840291	490609.839840291	5.35	5.345000500965398	490621.18978495797	490615.189840291	490615.184840792	490615.189840291	490615.196991292	490621.189840291	490621.196045	6	5.09035779297119	2.09035779297119	0.31643729098141193	160	660.81	-0.6	-0.399	i	0	5	0	4	0	0				0	7
490609.839840291	490610.589840291	5.35	5.345000500965398	490621.18978495797	490615.189840291	490615.184840792	490615.189840291	490615.196991292	490621.189840291	490621.196045	6	5.09035779297119	2.09035779297119	0.31643729098141193	160	651.94	-0.6	-0.399	i	0	5	0	4	0	0				0	7
490609.839840291	490611.339840291	5.35	5.345000500965398	490621.18978495797	490615.189840291	490615.184840792	490615.189840291	490615.196991292	490621.189840291	490621.196045	6	5.09035779297119	2.09035779297119	0.31643729098141193	160	654.47	-0.6	-0.399	i	0	5	0	4	0	0				0	7
490609.839840291	490612.089840291	5.35	5.345000500965398	490621.18978495797	490615.189840291	490615.184840792	490615.189840291	490615.196991292	490621.189840291	490621.196045	6	5.09035779297119	2.09035779297119	0.31643729098141193	160	652.03	-0.6	-0.399	i	0	5	0	4	0	0				0	7
490609.839840291	490612.839840291	5.35	5.345000500965398	490621.18978495797	490615.189840291	490615.184840792	490615.189840291	490615.196991292	490621.189840291	490621.196045	6	5.09035779297119	2.09035779297119	0.31643729098141193	160	645.64	-0.6	-0.399	i	0	5	0	4	1	0				0	7
490609.839840291	490613.589840291	5.35	5.345000500965398	490621.18978495797	490615.189840291	490615.184840792	490615.189840291	490615.196991292	490621.189840291	490621.196045	6	5.09035779297119	2.09035779297119	0.31643729098141193	160	655.53	-0.6	-0.399	i	0	5	0	4	0	0				0	7
490609.839840291	490614.339840291	5.35	5.345000500965398	490621.18978495797	490615.189840291	490615.184840792	490615.189840291	490615.196991292	490621.189840291	490621.196045	6	5.09035779297119	2.09035779297119	0.31643729098141193	160	655.32	-0.6	-0.399	i	0	5	0	4	0	0				0	7
490609.839840291	490615.089840291	5.35	5.345000500965398	490621.18978495797	490615.189840291	490615.184840792	490615.189840291	490615.196991292	490621.189840291	490621.196045	6	5.09035779297119	2.09035779297119	0.31643729098141193	160	659.11	-0.6	-0.399	i	0	5	0	4	0	0				0	7
490621.201659875	490621.201659875	5.35	5.344948625017423	490632.551605291	490626.55165987497	490626.5466085	490626.55165987497	490626.551927167	490632.55165987497	490632.563387959	6	3.466270084027201	1.966270084027201	0.3491596659878269	160	659.85	-0.6	-0.399	y	0	5	0	2	0	0				0	8
490621.201659875	490621.951659875	5.35	5.344948625017423	490632.551605291	490626.55165987497	490626.5466085	490626.55165987497	490626.551927167	490632.55165987497	490632.563387959	6	3.466270084027201	1.966270084027201	0.3491596659878269	160	660.96	-0.6	-0.399	y	0	5	0	2	0	0				0	8
490621.201659875	490622.701659875	5.35	5.344948625017423	490632.551605291	490626.55165987497	490626.5466085	490626.55165987497	490626.551927167	490632.55165987497	490632.563387959	6	3.466270084027201	1.966270084027201	0.3491596659878269	160	648.14	-0.6	-0.399	y	0	5	0	2	1	0				0	8
490621.201659875	490623.451659875	5.35	5.344948625017423	490632.551605291	490626.55165987497	490626.5466085	490626.55165987497	490626.551927167	490632.55165987497	490632.563387959	6	3.466270084027201	1.966270084027201	0.3491596659878269	160	666.41	-0.6	-0.399	y	0	5	0	2	0	0				0	8
490621.201659875	490624.201659875	5.35	5.344948625017423	490632.551605291	490626.55165987497	490626.5466085	490626.55165987497	490626.551927167	490632.55165987497	490632.563387959	6	3.466270084027201	1.966270084027201	0.3491596659878269	160	656.45	-0.6	-0.399	y	0	5	0	2	0	0				0	8
490621.201659875	490624.951659875	5.35	5.344948625017423	490632.551605291	490626.55165987497	490626.5466085	490626.55165987497	490626.551927167	490632.55165987497	490632.563387959	6	3.466270084027201	1.966270084027201	0.3491596659878269	160	671.8	-0.6	-0.399	y	0	5	0	2	0	0				0	8
490621.201659875	490625.701659875	5.35	5.344948625017423	490632.551605291	490626.55165987497	490626.5466085	490626.55165987497	490626.551927167	490632.55165987497	490632.563387959	6	3.466270084027201	1.966270084027201	0.3491596659878269	160	669.54	-0.6	-0.399	y	0	5	0	2	0	0				0	8
490621.201659875	490626.451659875	5.35	5.344948625017423	490632.551605291	490626.55165987497	490626.5466085	490626.55165987497	490626.551927167	490632.55165987497	490632.563387959	6	3.466270084027201	1.966270084027201	0.3491596659878269	160	673.07	-0.6	-0.399	y	0	5	0	2	0	0				0	8
490632.569105208	490632.569105208	5.35	5.346651376050431	490643.919049708	490637.91910520795	490637.915756584	490637.91910520795	490637.928637834	490643.91910520795	490643.930172125	6	5.578100667044055	2.5781006670440547	0.3276754580438137	160	675.65	-0.6	-0.399	l	0	5	1	4	0	0				0	9
490632.569105208	490633.319105208	5.35	5.346651376050431	490643.919049708	490637.91910520795	490637.915756584	490637.91910520795	490637.928637834	490643.91910520795	490643.930172125	6	5.578100667044055	2.5781006670440547	0.3276754580438137	160	675.43	-0.6	-0.399	l	0	5	1	4	0	0				0	9
490632.569105208	490634.069105208	5.35	5.346651376050431	490643.919049708	490637.91910520795	490637.915756584	490637.91910520795	490637.928637834	490643.91910520795	490643.930172125	6	5.578100667044055	2.5781006670440547	0.3276754580438137	160	668.54	-0.6	-0.399	l	0	5	1	4	0	0				0	9
490632.569105208	490634.819105208	5.35	5.346651376050431	490643.919049708	490637.91910520795	490637.915756584	490637.91910520795	490637.928637834	490643.91910520795	490643.930172125	6	5.578100667044055	2.5781006670440547	0.3276754580438137	160	663.14	-0.6	-0.399	l	0	5	1	4	0	0				0	9
490632.569105208	490635.569105208	5.35	5.346651376050431	490643.919049708	490637.91910520795	490637.915756584	490637.91910520795	490637.928637834	490643.91910520795	490643.930172125	6	5.578100667044055	2.5781006670440547	0.3276754580438137	160	652.81	-0.6	-0.399	l	0	5	1	4	1	0				0	9
490632.569105208	490636.319105208	5.35	5.346651376050431	490643.919049708	490637.91910520795	490637.915756584	490637.91910520795	490637.928637834	490643.91910520795	490643.930172125	6	5.578100667044055	2.5781006670440547	0.3276754580438137	160	657.92	-0.6	-0.399	l	0	5	1	4	0	0				0	9
490632.569105208	490637.069105208	5.35	5.346651376050431	490643.919049708	490637.91910520795	490637.915756584	490637.91910520795	490637.928637834	490643.91910520795	490643.930172125	6	5.578100667044055	2.5781006670440547	0.3276754580438137	160	662.62	-0.6	-0.399	l	0	5	1	4	0	0				0	9
490632.569105208	490637.819105208	5.35	5.346651376050431	490643.919049708	490637.91910520795	490637.915756584	490637.91910520795	490637.928637834	490643.91910520795	490643.930172125	6	5.578100667044055	2.5781006670440547	0.3276754580438137	160	655.82	-0.6	-0.399	l	0	5	1	4	0	0				0	9
490643.935924625	490643.935924625	5.35	5.348288541950751	490655.285869041	490649.285924625	490649.284213167	490649.285924625	490649.296296959	490655.285924625	490655.295048375	6	5.394389999972191	0.8943899999721907	0.2777920829830691	160	668.05	-0.6	-0.399	l	1	5	1	6	0	0				0	10
490643.935924625	490644.685924625	5.35	5.348288541950751	490655.285869041	490649.285924625	490649.284213167	490649.285924625	490649.296296959	490655.285924625	490655.295048375	6	5.394389999972191	0.8943899999721907	0.2777920829830691	160	665.13	-0.6	-0.399	l	1	5	1	6	0	0				0	10
490643.935924625	490645.435924625	5.35	5.348288541950751	490655.285869041	490649.285924625	490649.284213167	490649.285924625	490649.296296959	490655.285924625	490655.295048375	6	5.394389999972191	0.8943899999721907	0.2777920829830691	160	660.37	-0.6	-0.399	l	1	5	1	6	0	0				0	10
490643.935924625	490646.185924625	5.35	5.348288541950751	490655.285869041	490649.285924625	490649.284213167	490649.285924625	490649.296296959	490655.285924625	490655.295048375	6	5.394389999972191	0.8943899999721907	0.2777920829830691	160	658.17	-0.6	-0.399	l	1	5	1	6	0	0				0	10
490643.935924625	490646.935924625	5.35	5.348288541950751	490655.285869041	490649.285924625	490649.284213167	490649.285924625	490649.296296959	490655.285924625	490655.295048375	6	5.394389999972191	0.8943899999721907	0.2777920829830691	160	651.58	-0.6	-0.399	l	1	5	1	6	0	0				0	10
490643.935924625	490647.685924625	5.35	5.348288541950751	490655.285869041	490649.285924625	490649.284213167	490649.285924625	490649.296296959	490655.285924625	490655.295048375	6	5.394389999972191	0.8943899999721907	0.2777920829830691	160	653.26	-0.6	-0.399	l	1	5	1	6	0	0				0	10
490643.935924625	490648.435924625	5.35	5.348288541950751	490655.285869041	490649.285924625	490649.284213167	490649.285924625	490649.296296959	490655.285924625	490655.295048375	6	5.394389999972191	0.8943899999721907	0.2777920829830691	160	635.59	-0.6	-0.399	l	1	5	1	6	1	0				0	10
490643.935924625	490649.185924625	5.35	5.348288541950751	490655.285869041	490649.285924625	490649.284213167	490649.285924625	490649.296296959	490655.285924625	490655.295048375	6	5.394389999972191	0.8943899999721907	0.2777920829830691	160	648.79	-0.6	-0.399	l	1	5	1	6	0	0				0	10
490655.300556458	490655.300556458	5.35	5.345745333994273	490666.650499958	490660.650556458	490660.646301792	490660.650556458	490660.650922125	490666.650556458	490666.662933167	6	5.380056458991021	1.630056458991021	0.3181829589884728	160	648.89	-0.6	-0.399	l	0	5	1	5	0	0				0	11
490655.300556458	490656.050556458	5.35	5.345745333994273	490666.650499958	490660.650556458	490660.646301792	490660.650556458	490660.650922125	490666.650556458	490666.662933167	6	5.380056458991021	1.630056458991021	0.3181829589884728	160	645.62	-0.6	-0.399	l	0	5	1	5	0	0				0	11
490655.300556458	490656.800556458	5.35	5.345745333994273	490666.650499958	490660.650556458	490660.646301792	490660.650556458	490660.650922125	490666.650556458	490666.662933167	6	5.380056458991021	1.630056458991021	0.3181829589884728	160	647.69	-0.6	-0.399	l	0	5	1	5	0	0				0	11
490655.300556458	490657.550556458	5.35	5.345745333994273	490666.650499958	490660.650556458	490660.646301792	490660.650556458	490660.650922125	490666.650556458	490666.662933167	6	5.380056458991021	1.630056458991021	0.3181829589884728	160	642.29	-0.6	-0.399	l	0	5	1	5	0	0				0	11
490655.300556458	490658.300556458	5.35	5.345745333994273	490666.650499958	490660.650556458	490660.646301792	490660.650556458	490660.650922125	490666.650556458	490666.662933167	6	5.380056458991021	1.630056458991021	0.3181829589884728	160	650.62	-0.6	-0.399	l	0	5	1	5	0	0				0	11
490655.300556458	490659.050556458	5.35	5.345745333994273	490666.650499958	490660.650556458	490660.646301792	490660.650556458	490660.650922125	490666.650556458	490666.662933167	6	5.380056458991021	1.630056458991021	0.3181829589884728	160	650.85	-0.6	-0.399	l	0	5	1	5	1	0				0	11
490655.300556458	490659.800556458	5.35	5.345745333994273	490666.650499958	490660.650556458	490660.646301792	490660.650556458	490660.650922125	490666.650556458	490666.662933167	6	5.380056458991021	1.630056458991021	0.3181829589884728	160	667.64	-0.6	-0.399	l	0	5	1	5	0	0				0	11
490655.300556458	490660.550556458	5.35	5.345745333994273	490666.650499958	490660.650556458	490660.646301792	490660.650556458	490660.650922125	490666.650556458	490666.662933167	6	5.380056458991021	1.630056458991021	0.3181829589884728	160	660.32	-0.6	-0.399	l	0	5	1	5	0	0				0	11
490670.666730125	490670.666730125	5.35	5.34659291699063	490682.016676166	490676.016730125	490676.013323042	490676.016730125	490676.017966375	490682.016730125	490682.017998375	6	4.412675583967939	1.412675583967939	0.2938626249670051	160	662.85	-0.6	-0.399	u	1	5	1	4	0	1	l	1	0.6464977079886012	0	12
490670.666730125	490671.416730125	5.35	5.34659291699063	490682.016676166	490676.016730125	490676.013323042	490676.016730125	490676.017966375	490682.016730125	490682.017998375	6	4.412675583967939	1.412675583967939	0.2938626249670051	160	661.33	-0.6	-0.399	u	1	5	1	4	0	1	l	1	0.6464977079886012	0	12
490670.666730125	490672.166730125	5.35	5.34659291699063	490682.016676166	490676.016730125	490676.013323042	490676.016730125	490676.017966375	490682.016730125	490682.017998375	6	4.412675583967939	1.412675583967939	0.2938626249670051	160	661.69	-0.6	-0.399	u	1	5	1	4	0	1	l	1	0.6464977079886012	0	12
490670.666730125	490672.916730125	5.35	5.34659291699063	490682.016676166	490676.016730125	490676.013323042	490676.016730125	490676.017966375	490682.016730125	490682.017998375	6	4.412675583967939	1.412675583967939	0.2938626249670051	160	657.95	-0.6	-0.399	u	1	5	1	4	0	1	l	1	0.6464977079886012	0	12
490670.666730125	490673.666730125	5.35	5.34659291699063	490682.016676166	490676.016730125	490676.013323042	490676.016730125	490676.017966375	490682.016730125	490682.017998375	6	4.412675583967939	1.412675583967939	0.2938626249670051	160	650.71	-0.6	-0.399	u	1	5	1	4	1	1	l	1	0.6464977079886012	0	12
490670.666730125	490674.416730125	5.35	5.34659291699063	490682.016676166	490676.016730125	490676.013323042	490676.016730125	490676.017966375	490682.016730125	490682.017998375	6	4.412675583967939	1.412675583967939	0.2938626249670051	160	653.74	-0.6	-0.399	u	1	5	1	4	0	1	l	1	0.6464977079886012	0	12
490670.666730125	490675.166730125	5.35	5.34659291699063	490682.016676166	490676.016730125	490676.013323042	490676.016730125	490676.017966375	490682.016730125	490682.017998375	6	4.412675583967939	1.412675583967939	0.2938626249670051	160	648.57	-0.6	-0.399	u	1	5	1	4	0	1	l	1	0.6464977079886012	0	12
490670.666730125	490675.916730125	5.35	5.34659291699063	490682.016676166	490676.016730125	490676.013323042	490676.016730125	490676.017966375	490682.016730125	490682.017998375	6	4.412675583967939	1.412675583967939	0.2938626249670051	160	641.68	-0.6	-0.399	u	1	5	1	4	0	1	l	1	0.6464977079886012	0	12
490682.023551125	490682.023551125	5.35	5.343228874960914	490693.373494916	490687.373551125	490687.36678	490687.373551125	490687.379095417	490693.373551125	490693.379641459	6	2.6570675839902833	2.6570675839902833	0.01695320795988664	160	644.9	-0.6	-0.399	v	5	5	2	0	0	0				0	13
490682.023551125	490682.773551125	5.35	5.343228874960914	490693.373494916	490687.373551125	490687.36678	490687.373551125	490687.379095417	490693.373551125	490693.379641459	6	2.6570675839902833	2.6570675839902833	0.01695320795988664	160	641.96	-0.6	-0.399	v	5	5	2	0	0	0				0	13
490682.023551125	490683.523551125	5.35	5.343228874960914	490693.373494916	490687.373551125	490687.36678	490687.373551125	490687.379095417	490693.373551125	490693.379641459	6	2.6570675839902833	2.6570675839902833	0.01695320795988664	160	628.28	-0.6	-0.399	v	5	5	2	0	0	0				0	13
490682.023551125	490684.273551125	5.35	5.343228874960914	490693.373494916	490687.373551125	490687.36678	490687.373551125	490687.379095417	490693.373551125	490693.379641459	6	2.6570675839902833	2.6570675839902833	0.01695320795988664	160	631.2	-0.6	-0.399	v	5	5	2	0	0	0				0	13
490682.023551125	490685.023551125	5.35	5.343228874960914	490693.373494916	490687.373551125	490687.36678	490687.373551125	490687.379095417	490693.373551125	490693.379641459	6	2.6570675839902833	2.6570675839902833	0.01695320795988664	160	632.08	-0.6	-0.399	v	5	5	2	0	0	0				0	13
490682.023551125	490685.773551125	5.35	5.343228874960914	490693.373494916	490687.373551125	490687.36678	490687.373551125	490687.379095417	490693.373551125	490693.379641459	6	2.6570675839902833	2.6570675839902833	0.01695320795988664	160	632.81	-0.6	-0.399	v	5	5	2	0	0	0				0	13
490682.023551125	490686.523551125	5.35	5.343228874960914	490693.373494916	490687.373551125	490687.36678	490687.373551125	490687.379095417	490693.373551125	490693.379641459	6	2.6570675839902833	2.6570675839902833	0.01695320795988664	160	621.63	-0.6	-0.399	v	5	5	2	0	0	0				0	13
490682.023551125	490687.273551125	5.35	5.343228874960914	490693.373494916	490687.373551125	490687.36678	490687.373551125	490687.379095417	490693.373551125	490693.379641459	6	2.6570675839902833	2.6570675839902833	0.01695320795988664	160	637.25	-0.6	-0.399	v	5	5	2	0	0	0				0	13
490693.385369875	490693.385369875	5.35	5.347875249979552	490704.735315708	490698.735369875	490698.733245125	490698.735369875	490698.746371417	490704.735369875	490704.744909	6	4.594984584022313	0.8449845840223134	0.49250595801277086	160	638.48	-0.6	-0.399	i	1	5	1	5	0	0				0	14
490693.385369875	490694.135369875	5.35	5.347875249979552	490704.735315708	490698.735369875	490698.733245125	490698.735369875	490698.746371417	490704.735369875	490704.744909	6	4.594984584022313	0.8449845840223134	0.49250595801277086	160	641.84	-0.6	-0.399	i	1	5	1	5	0	0				0	14
490693.385369875	490694.885369875	5.35	5.347875249979552	490704.735315708	490698.735369875	490698.733245125	490698.735369875	490698.746371417	490704.735369875	490704.744909	6	4.594984584022313	0.8449845840223134	0.49250595801277086	160	646.94	-0.6	-0.399	i	1	5	1	5	0	0				0	14
490693.385369875	490695.635369875	5.35	5.347875249979552	490704.735315708	490698.735369875	490698.733245125	490698.735369875	490698.746371417	490704.735369875	490704.744909	6	4.594984584022313	0.8449845840223134	0.49250595801277086	160	642.03	-0.6	-0.399	i	1	5	1	5	0	0				0	14
490693.385369875	490696.385369875	5.35	5.347875249979552	490704.735315708	490698.735369875	490698.733245125	490698.735369875	490698.746371417	490704.735369875	490704.744909	6	4.594984584022313	0.8449845840223134	0.49250595801277086	160	649.82	-0.6	-0.399	i	1	5	1	5	0	0				0	14
490693.385369875	490697.135369875	5.35	5.347875249979552	490704.735315708	490698.735369875	490698.733245125	490698.735369875	490698.746371417	490704.735369875	490704.744909	6	4.594984584022313	0.8449845840223134	0.49250595801277086	160	669.11	-0.6	-0.399	i	1	5	1	5	1	0				0	14
490693.385369875	490697.885369875	5.35	5.347875249979552	490704.735315708	490698.735369875	490698.733245125	490698.735369875	490698.746371417	490704.735369875	490704.744909	6	4.594984584022313	0.8449845840223134	0.49250595801277086	160	639.69	-0.6	-0.399	i	1	5	1	5	0	0				0	14
490693.385369875	490698.635369875	5.35	5.347875249979552	490704.735315708	490698.735369875	490698.733245125	490698.735369875	490698.746371417	490704.735369875	490704.744909	6	4.594984584022313	0.8449845840223134	0.49250595801277086	160	644.71	-0.6	-0.399	i	1	5	1	5	0	0				0	14
490704.750315625	490704.750315625	5.35	5.349403041996993	490716.1002635	490710.10031562496	490710.099718667	490710.10031562496	490710.112178459	490716.10031562496	490716.113218459	6	4.2800823749857955	0.5300823749857955	0.3437616669689305	160	648.65	-0.6	-0.399	i	1	5	1	5	0	0				0	15
490704.750315625	490705.500315625	5.35	5.349403041996993	490716.1002635	490710.10031562496	490710.099718667	490710.10031562496	490710.112178459	490716.10031562496	490716.113218459	6	4.2800823749857955	0.5300823749857955	0.3437616669689305	160	643.54	-0.6	-0.399	i	1	5	1	5	0	0				0	15
490704.750315625	490706.250315625	5.35	5.349403041996993	490716.1002635	490710.10031562496	490710.099718667	490710.10031562496	490710.112178459	490716.10031562496	490716.113218459	6	4.2800823749857955	0.5300823749857955	0.3437616669689305	160	639.16	-0.6	-0.399	i	1	5	1	5	0	0				0	15
490704.750315625	490707.000315625	5.35	5.349403041996993	490716.1002635	490710.10031562496	490710.099718667	490710.10031562496	490710.112178459	490716.10031562496	490716.113218459	6	4.2800823749857955	0.5300823749857955	0.3437616669689305	160	633.2	-0.6	-0.399	i	1	5	1	5	0	0				0	15
490704.750315625	490707.750315625	5.35	5.349403041996993	490716.1002635	490710.10031562496	490710.099718667	490710.10031562496	490710.112178459	490716.10031562496	490716.113218459	6	4.2800823749857955	0.5300823749857955	0.3437616669689305	160	643.33	-0.6	-0.399	i	1	5	1	5	0	0				0	15
490704.750315625	490708.500315625	5.35	5.349403041996993	490716.1002635	490710.10031562496	490710.099718667	490710.10031562496	490710.112178459	490716.10031562496	490716.113218459	6	4.2800823749857955	0.5300823749857955	0.3437616669689305	160	678.94	-0.6	-0.399	i	1	5	1	5	1	0				0	15
490704.750315625	490709.250315625	5.35	5.349403041996993	490716.1002635	490710.10031562496	490710.099718667	490710.10031562496	490710.112178459	490716.10031562496	490716.113218459	6	4.2800823749857955	0.5300823749857955	0.3437616669689305	160	633.16	-0.6	-0.399	i	1	5	1	5	0	0				0	15
490704.750315625	490710.000315625	5.35	5.349403041996993	490716.1002635	490710.10031562496	490710.099718667	490710.10031562496	490710.112178459	490716.10031562496	490716.113218459	6	4.2800823749857955	0.5300823749857955	0.3437616669689305	160	641.67	-0.6	-0.399	i	1	5	1	5	0	0				0	15
490716.119325916	490716.119325916	5.35	5.347260958980769	490727.469275125	490721.46932591597	490721.466586875	490721.46932591597	490721.47737925	490727.46932591597	490727.478973584	6	4.944105376023799	0.4441053760237992	0.366516167006921	160	644.23	-0.6	-0.399	l	1	5	1	6	0	0				0	16
490716.119325916	490716.869325916	5.35	5.347260958980769	490727.469275125	490721.46932591597	490721.466586875	490721.46932591597	490721.47737925	490727.46932591597	490727.478973584	6	4.944105376023799	0.4441053760237992	0.366516167006921	160	640.88	-0.6	-0.399	l	1	5	1	6	0	0				0	16
490716.119325916	490717.619325916	5.35	5.347260958980769	490727.469275125	490721.46932591597	490721.466586875	490721.46932591597	490721.47737925	490727.46932591597	490727.478973584	6	4.944105376023799	0.4441053760237992	0.366516167006921	160	641.7	-0.6	-0.399	l	1	5	1	6	0	0				0	16
490716.119325916	490718.369325916	5.35	5.347260958980769	490727.469275125	490721.46932591597	490721.466586875	490721.46932591597	490721.47737925	490727.46932591597	490727.478973584	6	4.944105376023799	0.4441053760237992	0.366516167006921	160	638.61	-0.6	-0.399	l	1	5	1	6	0	0				0	16
490716.119325916	490719.119325916	5.35	5.347260958980769	490727.469275125	490721.46932591597	490721.466586875	490721.46932591597	490721.47737925	490727.46932591597	490727.478973584	6	4.944105376023799	0.4441053760237992	0.366516167006921	160	632.21	-0.6	-0.399	l	1	5	1	6	0	0				0	16
490716.119325916	490719.869325916	5.35	5.347260958980769	490727.469275125	490721.46932591597	490721.466586875	490721.46932591597	490721.47737925	490727.46932591597	490727.478973584	6	4.944105376023799	0.4441053760237992	0.366516167006921	160	633.43	-0.6	-0.399	l	1	5	1	6	0	0				0	16
490716.119325916	490720.619325916	5.35	5.347260958980769	490727.469275125	490721.46932591597	490721.466586875	490721.46932591597	490721.47737925	490727.46932591597	490727.478973584	6	4.944105376023799	0.4441053760237992	0.366516167006921	160	690.4	-0.6	-0.399	l	1	5	1	6	1	0				0	16
490716.119325916	490721.369325916	5.35	5.347260958980769	490727.469275125	490721.46932591597	490721.466586875	490721.46932591597	490721.47737925	490727.46932591597	490727.478973584	6	4.944105376023799	0.4441053760237992	0.366516167006921	160	635.62	-0.6	-0.399	l	1	5	1	6	0	0				0	16
490727.484587583	490727.484587583	5.35	5.345227041980252	490738.83453575	490732.83458758297	490732.829814625	490732.83458758297	490732.835131959	490738.83458758297	490738.846402334	6	4.061630291980691	0.31163029198069125	0.31065787497209385	160	626.96	-0.6	-0.399	i	1	5	1	5	0	0				0	17
490727.484587583	490728.234587583	5.35	5.345227041980252	490738.83453575	490732.83458758297	490732.829814625	490732.83458758297	490732.835131959	490738.83458758297	490738.846402334	6	4.061630291980691	0.31163029198069125	0.31065787497209385	160	620.93	-0.6	-0.399	i	1	5	1	5	0	0				0	17
490727.484587583	490728.984587583	5.35	5.345227041980252	490738.83453575	490732.83458758297	490732.829814625	490732.83458758297	490732.835131959	490738.83458758297	490738.846402334	6	4.061630291980691	0.31163029198069125	0.31065787497209385	160	625.96	-0.6	-0.399	i	1	5	1	5	0	0				0	17
490727.484587583	490729.734587583	5.35	5.345227041980252	490738.83453575	490732.83458758297	490732.829814625	490732.83458758297	490732.835131959	490738.83458758297	490738.846402334	6	4.061630291980691	0.31163029198069125	0.31065787497209385	160	625.24	-0.6	-0.399	i	1	5	1	5	0	0				0	17
490727.484587583	490730.484587583	5.35	5.345227041980252	490738.83453575	490732.83458758297	490732.829814625	490732.83458758297	490732.835131959	490738.83458758297	490738.846402334	6	4.061630291980691	0.31163029198069125	0.31065787497209385	160	621.3	-0.6	-0.399	i	1	5	1	5	0	0				0	17
490727.484587583	490731.234587583	5.35	5.345227041980252	490738.83453575	490732.83458758297	490732.829814625	490732.83458758297	490732.835131959	490738.83458758297	490738.846402334	6	4.061630291980691	0.31163029198069125	0.31065787497209385	160	691.48	-0.6	-0.399	i	1	5	1	5	1	0				0	17
490727.484587583	490731.984587583	5.35	5.345227041980252	490738.83453575	490732.83458758297	490732.829814625	490732.83458758297	490732.835131959	490738.83458758297	490738.846402334	6	4.061630291980691	0.31163029198069125	0.31065787497209385	160	626.0	-0.6	-0.399	i	1	5	1	5	0	0				0	17
490727.484587583	490732.734587583	5.35	5.345227041980252	490738.83453575	490732.83458758297	490732.829814625	490732.83458758297	490732.835131959	490738.83458758297	490738.846402334	6	4.061630291980691	0.31163029198069125	0.31065787497209385	160	626.73	-0.6	-0.399	i	1	5	1	5	0	0				0	17
490738.852660666	490738.852660666	5.35	5.348245626024436	490750.20260808297	490744.20266066596	490744.200906292	490744.20266066596	490744.212931792	490750.20266066596	490750.212194959	6	4.277261043025646	0.5272610430256464	0.29365012497873977	160	624.85	-0.6	-0.399	i	1	5	1	5	0	0				0	18
490738.852660666	490739.602660666	5.35	5.348245626024436	490750.20260808297	490744.20266066596	490744.200906292	490744.20266066596	490744.212931792	490750.20266066596	490750.212194959	6	4.277261043025646	0.5272610430256464	0.29365012497873977	160	614.7	-0.6	-0.399	i	1	5	1	5	0	0				0	18
490738.852660666	490740.352660666	5.35	5.348245626024436	490750.20260808297	490744.20266066596	490744.200906292	490744.20266066596	490744.212931792	490750.20266066596	490750.212194959	6	4.277261043025646	0.5272610430256464	0.29365012497873977	160	622.85	-0.6	-0.399	i	1	5	1	5	0	0				0	18
490738.852660666	490741.102660666	5.35	5.348245626024436	490750.20260808297	490744.20266066596	490744.200906292	490744.20266066596	490744.212931792	490750.20266066596	490750.212194959	6	4.277261043025646	0.5272610430256464	0.29365012497873977	160	634.5	-0.6	-0.399	i	1	5	1	5	0	0				0	18
490738.852660666	490741.852660666	5.35	5.348245626024436	490750.20260808297	490744.20266066596	490744.200906292	490744.20266066596	490744.212931792	490750.20266066596	490750.212194959	6	4.277261043025646	0.5272610430256464	0.29365012497873977	160	633.65	-0.6	-0.399	i	1	5	1	5	0	0				0	18
490738.852660666	490742.602660666	5.35	5.348245626024436	490750.20260808297	490744.20266066596	490744.200906292	490744.20266066596	490744.212931792	490750.20266066596	490750.212194959	6	4.277261043025646	0.5272610430256464	0.29365012497873977	160	685.59	-0.6	-0.399	i	1	5	1	5	1	0				0	18
490738.852660666	490743.352660666	5.35	5.348245626024436	490750.20260808297	490744.20266066596	490744.200906292	490744.20266066596	490744.212931792	490750.20266066596	490750.212194959	6	4.277261043025646	0.5272610430256464	0.29365012497873977	160	634.3	-0.6	-0.399	i	1	5	1	5	0	0				0	18
490738.852660666	490744.102660666	5.35	5.348245626024436	490750.20260808297	490744.20266066596	490744.200906292	490744.20266066596	490744.212931792	490750.20266066596	490750.212194959	6	4.277261043025646	0.5272610430256464	0.29365012497873977	160	633.11	-0.6	-0.399	i	1	5	1	5	0	0				0	18
490754.216340083	490754.216340083	5.35	5.346490041993093	490765.566289541	490759.56634008297	490759.562830125	490759.56634008297	490759.567604875	490765.56634008297	490765.567077792	6	5.001735083991662	0.5017350839916617	0.5152200409793295	160	642.43	-0.6	-0.399	l	1	5	1	6	0	1	l	1	0.7045317919692025	0	19
490754.216340083	490754.966340083	5.35	5.346490041993093	490765.566289541	490759.56634008297	490759.562830125	490759.56634008297	490759.567604875	490765.56634008297	490765.567077792	6	5.001735083991662	0.5017350839916617	0.5152200409793295	160	630.05	-0.6	-0.399	l	1	5	1	6	0	1	l	1	0.7045317919692025	0	19
490754.216340083	490755.716340083	5.35	5.346490041993093	490765.566289541	490759.56634008297	490759.562830125	490759.56634008297	490759.567604875	490765.56634008297	490765.567077792	6	5.001735083991662	0.5017350839916617	0.5152200409793295	160	628.76	-0.6	-0.399	l	1	5	1	6	0	1	l	1	0.7045317919692025	0	19
490754.216340083	490756.466340083	5.35	5.346490041993093	490765.566289541	490759.56634008297	490759.562830125	490759.56634008297	490759.567604875	490765.56634008297	490765.567077792	6	5.001735083991662	0.5017350839916617	0.5152200409793295	160	629.79	-0.6	-0.399	l	1	5	1	6	0	1	l	1	0.7045317919692025	0	19
490754.216340083	490757.216340083	5.35	5.346490041993093	490765.566289541	490759.56634008297	490759.562830125	490759.56634008297	490759.567604875	490765.56634008297	490765.567077792	6	5.001735083991662	0.5017350839916617	0.5152200409793295	160	632.9	-0.6	-0.399	l	1	5	1	6	0	1	l	1	0.7045317919692025	0	19
490754.216340083	490757.966340083	5.35	5.346490041993093	490765.566289541	490759.56634008297	490759.562830125	490759.56634008297	490759.567604875	490765.56634008297	490765.567077792	6	5.001735083991662	0.5017350839916617	0.5152200409793295	160	630.97	-0.6	-0.399	l	1	5	1	6	0	1	l	1	0.7045317919692025	0	19
490754.216340083	490758.716340083	5.35	5.346490041993093	490765.566289541	490759.56634008297	490759.562830125	490759.56634008297	490759.567604875	490765.56634008297	490765.567077792	6	5.001735083991662	0.5017350839916617	0.5152200409793295	160	695.64	-0.6	-0.399	l	1	5	1	6	1	1	l	1	0.7045317919692025	0	19
490754.216340083	490759.466340083	5.35	5.346490041993093	490765.566289541	490759.56634008297	490759.562830125	490759.56634008297	490759.567604875	490765.56634008297	490765.567077792	6	5.001735083991662	0.5017350839916617	0.5152200409793295	160	630.97	-0.6	-0.399	l	1	5	1	6	0	1	l	1	0.7045317919692025	0	19
490765.572539541	490765.572539541	5.35	5.344678875990212	490776.922487166	490770.922539541	490770.917218417	490770.922539541	490770.929624167	490776.922539541	490776.929019334	6	4.757601625984535	0.2576016259845346	0.32781512499786913	160	636.58	-0.6	-0.399	l	1	5	1	6	0	0				0	20
490765.572539541	490766.322539541	5.35	5.344678875990212	490776.922487166	490770.922539541	490770.917218417	490770.922539541	490770.929624167	490776.922539541	490776.929019334	6	4.757601625984535	0.2576016259845346	0.32781512499786913	160	624.61	-0.6	-0.399	l	1	5	1	6	0	0				0	20
490765.572539541	490767.072539541	5.35	5.344678875990212	490776.922487166	490770.922539541	490770.917218417	490770.922539541	490770.929624167	490776.922539541	490776.929019334	6	4.757601625984535	0.2576016259845346	0.32781512499786913	160	626.62	-0.6	-0.399	l	1	5	1	6	0	0				0	20
490765.572539541	490767.822539541	5.35	5.344678875990212	490776.922487166	490770.922539541	490770.917218417	490770.922539541	490770.929624167	490776.922539541	490776.929019334	6	4.757601625984535	0.2576016259845346	0.32781512499786913	160	620.64	-0.6	-0.399	l	1	5	1	6	0	0				0	20
490765.572539541	490768.572539541	5.35	5.344678875990212	490776.922487166	490770.922539541	490770.917218417	490770.922539541	490770.929624167	490776.922539541	490776.929019334	6	4.757601625984535	0.2576016259845346	0.32781512499786913	160	621.45	-0.6	-0.399	l	1	5	1	6	0	0				0	20
490765.572539541	490769.322539541	5.35	5.344678875990212	490776.922487166	490770.922539541	490770.917218417	490770.922539541	490770.929624167	490776.922539541	490776.929019334	6	4.757601625984535	0.2576016259845346	0.32781512499786913	160	618.03	-0.6	-0.399	l	1	5	1	6	0	0				0	20
490765.572539541	490770.072539541	5.35	5.344678875990212	490776.922487166	490770.922539541	490770.917218417	490770.922539541	490770.929624167	490776.922539541	490776.929019334	6	4.757601625984535	0.2576016259845346	0.32781512499786913	160	673.39	-0.6	-0.399	l	1	5	1	6	1	0				0	20
490765.572539541	490770.822539541	5.35	5.344678875990212	490776.922487166	490770.922539541	490770.917218417	490770.922539541	490770.929624167	490776.922539541	490776.929019334	6	4.757601625984535	0.2576016259845346	0.32781512499786913	160	610.26	-0.6	-0.399	l	1	5	1	6	0	0				0	20
490776.934987125	490776.934987125	5.35	5.34878691699123	490788.284935458	490782.28498712496	490782.283774042	490782.28498712496	490782.294567667	490788.28498712496	490788.296072209	6	3.7444695419981144	0.7444695419981144	0.4441569999908097	160	609.14	-0.6	-0.399	u	1	5	1	4	0	0				0	21
490776.934987125	490777.684987125	5.35	5.34878691699123	490788.284935458	490782.28498712496	490782.283774042	490782.28498712496	490782.294567667	490788.28498712496	490788.296072209	6	3.7444695419981144	0.7444695419981144	0.4441569999908097	160	608.93	-0.6	-0.399	u	1	5	1	4	0	0				0	21
490776.934987125	490778.434987125	5.35	5.34878691699123	490788.284935458	490782.28498712496	490782.283774042	490782.28498712496	490782.294567667	490788.28498712496	490788.296072209	6	3.7444695419981144	0.7444695419981144	0.4441569999908097	160	618.28	-0.6	-0.399	u	1	5	1	4	0	0				0	21
490776.934987125	490779.184987125	5.35	5.34878691699123	490788.284935458	490782.28498712496	490782.283774042	490782.28498712496	490782.294567667	490788.28498712496	490788.296072209	6	3.7444695419981144	0.7444695419981144	0.4441569999908097	160	613.0	-0.6	-0.399	u	1	5	1	4	0	0				0	21
490776.934987125	490779.934987125	5.35	5.34878691699123	490788.284935458	490782.28498712496	490782.283774042	490782.28498712496	490782.294567667	490788.28498712496	490788.296072209	6	3.7444695419981144	0.7444695419981144	0.4441569999908097	160	670.73	-0.6	-0.399	u	1	5	1	4	1	0				0	21
490776.934987125	490780.684987125	5.35	5.34878691699123	490788.284935458	490782.28498712496	490782.283774042	490782.28498712496	490782.294567667	490788.28498712496	490788.296072209	6	3.7444695419981144	0.7444695419981144	0.4441569999908097	160	602.18	-0.6	-0.399	u	1	5	1	4	0	0				0	21
490776.934987125	490781.434987125	5.35	5.34878691699123	490788.284935458	490782.28498712496	490782.283774042	490782.28498712496	490782.294567667	490788.28498712496	490788.296072209	6	3.7444695419981144	0.7444695419981144	0.4441569999908097	160	599.76	-0.6	-0.399	u	1	5	1	4	0	0				0	21
490776.934987125	490782.184987125	5.35	5.34878691699123	490788.284935458	490782.28498712496	490782.283774042	490782.28498712496	490782.294567667	490788.28498712496	490788.296072209	6	3.7444695419981144	0.7444695419981144	0.4441569999908097	160	607.47	-0.6	-0.399	u	1	5	1	4	0	0				0	21
490788.301810375	490788.301810375	5.35	5.348348875006195	490799.65175833297	490793.651810375	490793.65015925	490793.651810375	490793.660777542	490799.651810375	490799.661429875	6	4.893864499987103	0.39386449998710304	0.33367508300580084	160	612.82	-0.6	-0.399	l	1	5	1	6	0	0				0	22
490788.301810375	490789.051810375	5.35	5.348348875006195	490799.65175833297	490793.651810375	490793.65015925	490793.651810375	490793.660777542	490799.651810375	490799.661429875	6	4.893864499987103	0.39386449998710304	0.33367508300580084	160	609.12	-0.6	-0.399	l	1	5	1	6	0	0				0	22
490788.301810375	490789.801810375	5.35	5.348348875006195	490799.65175833297	490793.651810375	490793.65015925	490793.651810375	490793.660777542	490799.651810375	490799.661429875	6	4.893864499987103	0.39386449998710304	0.33367508300580084	160	601.92	-0.6	-0.399	l	1	5	1	6	0	0				0	22
490788.301810375	490790.551810375	5.35	5.348348875006195	490799.65175833297	490793.651810375	490793.65015925	490793.651810375	490793.660777542	490799.651810375	490799.661429875	6	4.893864499987103	0.39386449998710304	0.33367508300580084	160	609.51	-0.6	-0.399	l	1	5	1	6	0	0				0	22
490788.301810375	490791.301810375	5.35	5.348348875006195	490799.65175833297	490793.651810375	490793.65015925	490793.651810375	490793.660777542	490799.651810375	490799.661429875	6	4.893864499987103	0.39386449998710304	0.33367508300580084	160	624.48	-0.6	-0.399	l	1	5	1	6	0	0				0	22
490788.301810375	490792.051810375	5.35	5.348348875006195	490799.65175833297	490793.651810375	490793.65015925	490793.651810375	490793.660777542	490799.651810375	490799.661429875	6	4.893864499987103	0.39386449998710304	0.33367508300580084	160	607.7	-0.6	-0.399	l	1	5	1	6	0	0				0	22
490788.301810375	490792.801810375	5.35	5.348348875006195	490799.65175833297	490793.651810375	490793.65015925	490793.651810375	490793.660777542	490799.651810375	490799.661429875	6	4.893864499987103	0.39386449998710304	0.33367508300580084	160	671.54	-0.6	-0.399	l	1	5	1	6	1	0				0	22
490788.301810375	490793.551810375	5.35	5.348348875006195	490799.65175833297	490793.651810375	490793.65015925	490793.651810375	490793.660777542	490799.651810375	490799.661429875	6	4.893864499987103	0.39386449998710304	0.33367508300580084	160	617.97	-0.6	-0.399	l	1	5	1	6	0	0				0	22
490799.66675825	490799.66675825	5.35	5.34593562502414	490811.01670624997	490805.01675824996	490805.012693875	490805.01675824996	490805.017524292	490811.01675824996	490811.016936125	6	4.329672584019136	0.5796725840191357	0.40944137499900535	160	617.99	-0.6	-0.399	i	1	5	1	5	0	0				0	23
490799.66675825	490800.41675825	5.35	5.34593562502414	490811.01670624997	490805.01675824996	490805.012693875	490805.01675824996	490805.017524292	490811.01675824996	490811.016936125	6	4.329672584019136	0.5796725840191357	0.40944137499900535	160	623.72	-0.6	-0.399	i	1	5	1	5	0	0				0	23
490799.66675825	490801.16675825	5.35	5.34593562502414	490811.01670624997	490805.01675824996	490805.012693875	490805.01675824996	490805.017524292	490811.01675824996	490811.016936125	6	4.329672584019136	0.5796725840191357	0.40944137499900535	160	625.65	-0.6	-0.399	i	1	5	1	5	0	0				0	23
490799.66675825	490801.91675825	5.35	5.34593562502414	490811.01670624997	490805.01675824996	490805.012693875	490805.01675824996	490805.017524292	490811.01675824996	490811.016936125	6	4.329672584019136	0.5796725840191357	0.40944137499900535	160	628.83	-0.6	-0.399	i	1	5	1	5	0	0				0	23
490799.66675825	490802.66675825	5.35	5.34593562502414	490811.01670624997	490805.01675824996	490805.012693875	490805.01675824996	490805.017524292	490811.01675824996	490811.016936125	6	4.329672584019136	0.5796725840191357	0.40944137499900535	160	629.71	-0.6	-0.399	i	1	5	1	5	0	0				0	23
490799.66675825	490803.41675825	5.35	5.34593562502414	490811.01670624997	490805.01675824996	490805.012693875	490805.01675824996	490805.017524292	490811.01675824996	490811.016936125	6	4.329672584019136	0.5796725840191357	0.40944137499900535	160	671.15	-0.6	-0.399	i	1	5	1	5	1	0				0	23
490799.66675825	490804.16675825	5.35	5.34593562502414	490811.01670624997	490805.01675824996	490805.012693875	490805.01675824996	490805.017524292	490811.01675824996	490811.016936125	6	4.329672584019136	0.5796725840191357	0.40944137499900535	160	632.69	-0.6	-0.399	i	1	5	1	5	0	0				0	23
490799.66675825	490804.91675825	5.35	5.34593562502414	490811.01670624997	490805.01675824996	490805.012693875	490805.01675824996	490805.017524292	490811.01675824996	490811.016936125	6	4.329672584019136	0.5796725840191357	0.40944137499900535	160	632.67	-0.6	-0.399	i	1	5	1	5	0	0				0	23
490811.022331208	490811.022331208	5.35	5.344789666996803	490822.37227875	490816.37233120797	490816.367120875	490816.37233120797	490816.379215125	490822.37233120797	490822.377629834	6	3.540312291996088	0.5403122919960879	0.3099395830067806	160	630.89	-0.6	-0.399	u	1	5	1	4	0	0				0	24
490811.022331208	490811.772331208	5.35	5.344789666996803	490822.37227875	490816.37233120797	490816.367120875	490816.37233120797	490816.379215125	490822.37233120797	490822.377629834	6	3.540312291996088	0.5403122919960879	0.3099395830067806	160	630.08	-0.6	-0.399	u	1	5	1	4	0	0				0	24
490811.022331208	490812.522331208	5.35	5.344789666996803	490822.37227875	490816.37233120797	490816.367120875	490816.37233120797	490816.379215125	490822.37233120797	490822.377629834	6	3.540312291996088	0.5403122919960879	0.3099395830067806	160	636.3	-0.6	-0.399	u	1	5	1	4	0	0				0	24
490811.022331208	490813.272331208	5.35	5.344789666996803	490822.37227875	490816.37233120797	490816.367120875	490816.37233120797	490816.379215125	490822.37233120797	490822.377629834	6	3.540312291996088	0.5403122919960879	0.3099395830067806	160	630.89	-0.6	-0.399	u	1	5	1	4	0	0				0	24
490811.022331208	490814.022331208	5.35	5.344789666996803	490822.37227875	490816.37233120797	490816.367120875	490816.37233120797	490816.379215125	490822.37233120797	490822.377629834	6	3.540312291996088	0.5403122919960879	0.3099395830067806	160	691.5	-0.6	-0.399	u	1	5	1	4	1	0				0	24
490811.022331208	490814.772331208	5.35	5.344789666996803	490822.37227875	490816.37233120797	490816.367120875	490816.37233120797	490816.379215125	490822.37233120797	490822.377629834	6	3.540312291996088	0.5403122919960879	0.3099395830067806	160	630.38	-0.6	-0.399	u	1	5	1	4	0	0				0	24
490811.022331208	490815.522331208	5.35	5.344789666996803	490822.37227875	490816.37233120797	490816.367120875	490816.37233120797	490816.379215125	490822.37233120797	490822.377629834	6	3.540312291996088	0.5403122919960879	0.3099395830067806	160	619.89	-0.6	-0.399	u	1	5	1	4	0	0				0	24
490811.022331208	490816.272331208	5.35	5.344789666996803	490822.37227875	490816.37233120797	490816.367120875	490816.37233120797	490816.379215125	490822.37233120797	490822.377629834	6	3.540312291996088	0.5403122919960879	0.3099395830067806	160	636.73	-0.6	-0.399	u	1	5	1	4	0	0				0	24
490822.383841208	490822.383841208	5.35	5.349742292019073	490833.733789041	490827.733841208	490827.7335835	490827.733841208	490827.745180834	490833.733841208	490833.734103625	6	4.862423792015761	0.36242379201576114	0.49439641600474715	160	633.38	-0.6	-0.399	l	1	5	1	6	0	0				0	25
490822.383841208	490823.133841208	5.35	5.349742292019073	490833.733789041	490827.733841208	490827.7335835	490827.733841208	490827.745180834	490833.733841208	490833.734103625	6	4.862423792015761	0.36242379201576114	0.49439641600474715	160	639.16	-0.6	-0.399	l	1	5	1	6	0	0				0	25
490822.383841208	490823.883841208	5.35	5.349742292019073	490833.733789041	490827.733841208	490827.7335835	490827.733841208	490827.745180834	490833.733841208	490833.734103625	6	4.862423792015761	0.36242379201576114	0.49439641600474715	160	636.6	-0.6	-0.399	l	1	5	1	6	0	0				0	25
490822.383841208	490824.633841208	5.35	5.349742292019073	490833.733789041	490827.733841208	490827.7335835	490827.733841208	490827.745180834	490833.733841208	490833.734103625	6	4.862423792015761	0.36242379201576114	0.49439641600474715	160	639.76	-0.6	-0.399	l	1	5	1	6	0	0				0	25
490822.383841208	490825.383841208	5.35	5.349742292019073	490833.733789041	490827.733841208	490827.7335835	490827.733841208	490827.745180834	490833.733841208	490833.734103625	6	4.862423792015761	0.36242379201576114	0.49439641600474715	160	639.09	-0.6	-0.399	l	1	5	1	6	0	0				0	25
490822.383841208	490826.133841208	5.35	5.349742292019073	490833.733789041	490827.733841208	490827.7335835	490827.733841208	490827.745180834	490833.733841208	490833.734103625	6	4.862423792015761	0.36242379201576114	0.49439641600474715	160	634.41	-0.6	-0.399	l	1	5	1	6	0	0				0	25
490822.383841208	490826.883841208	5.35	5.349742292019073	490833.733789041	490827.733841208	490827.7335835	490827.733841208	490827.745180834	490833.733841208	490833.734103625	6	4.862423792015761	0.36242379201576114	0.49439641600474715	160	710.71	-0.6	-0.399	l	1	5	1	6	1	0				0	25
490822.383841208	490827.633841208	5.35	5.349742292019073	490833.733789041	490827.733841208	490827.7335835	490827.733841208	490827.745180834	490833.733841208	490833.734103625	6	4.862423792015761	0.36242379201576114	0.49439641600474715	160	629.97	-0.6	-0.399	l	1	5	1	6	0	0				0	25
490833.740039041	490833.740039041	5.35	5.342643834010232	490845.089987083	490839.09003904095	490839.082682875	490839.09003904095	490839.095931917	490845.09003904095	490845.09579725	6	4.556196584017016	0.806196584017016	0.293217791011557	160	640.87	-0.6	-0.399	i	1	5	1	5	0	0				0	26
490833.740039041	490834.490039041	5.35	5.342643834010232	490845.089987083	490839.09003904095	490839.082682875	490839.09003904095	490839.095931917	490845.09003904095	490845.09579725	6	4.556196584017016	0.806196584017016	0.293217791011557	160	640.66	-0.6	-0.399	i	1	5	1	5	0	0				0	26
490833.740039041	490835.240039041	5.35	5.342643834010232	490845.089987083	490839.09003904095	490839.082682875	490839.09003904095	490839.095931917	490845.09003904095	490845.09579725	6	4.556196584017016	0.806196584017016	0.293217791011557	160	632.45	-0.6	-0.399	i	1	5	1	5	0	0				0	26
490833.740039041	490835.990039041	5.35	5.342643834010232	490845.089987083	490839.09003904095	490839.082682875	490839.09003904095	490839.095931917	490845.09003904095	490845.09579725	6	4.556196584017016	0.806196584017016	0.293217791011557	160	636.77	-0.6	-0.399	i	1	5	1	5	0	0				0	26
490833.740039041	490836.740039041	5.35	5.342643834010232	490845.089987083	490839.09003904095	490839.082682875	490839.09003904095	490839.095931917	490845.09003904095	490845.09579725	6	4.556196584017016	0.806196584017016	0.293217791011557	160	637.66	-0.6	-0.399	i	1	5	1	5	0	0				0	26
490833.740039041	490837.490039041	5.35	5.342643834010232	490845.089987083	490839.09003904095	490839.082682875	490839.09003904095	490839.095931917	490845.09003904095	490845.09579725	6	4.556196584017016	0.806196584017016	0.293217791011557	160	708.59	-0.6	-0.399	i	1	5	1	5	1	0				0	26
490833.740039041	490838.240039041	5.35	5.342643834010232	490845.089987083	490839.09003904095	490839.082682875	490839.09003904095	490839.095931917	490845.09003904095	490845.09579725	6	4.556196584017016	0.806196584017016	0.293217791011557	160	629.45	-0.6	-0.399	i	1	5	1	5	0	0				0	26
490833.740039041	490838.990039041	5.35	5.342643834010232	490845.089987083	490839.09003904095	490839.082682875	490839.09003904095	490839.095931917	490845.09003904095	490845.09579725	6	4.556196584017016	0.806196584017016	0.293217791011557	160	618.33	-0.6	-0.399	i	1	5	1	5	0	0				0	26
490845.102174541	490845.102174541	5.35	5.346269208996091	490856.45212225	490850.45217454096	490850.44844375	490850.45217454096	490850.462404792	490856.45217454096	490856.462366125	6	3.7446930010337383	0.7446930010337383	0.3100834580254741	160	622.18	-0.6	-0.399	u	1	5	1	4	0	0				0	27
490845.102174541	490845.852174541	5.35	5.346269208996091	490856.45212225	490850.45217454096	490850.44844375	490850.45217454096	490850.462404792	490856.45217454096	490856.462366125	6	3.7446930010337383	0.7446930010337383	0.3100834580254741	160	624.59	-0.6	-0.399	u	1	5	1	4	0	0				0	27
490845.102174541	490846.602174541	5.35	5.346269208996091	490856.45212225	490850.45217454096	490850.44844375	490850.45217454096	490850.462404792	490856.45217454096	490856.462366125	6	3.7446930010337383	0.7446930010337383	0.3100834580254741	160	614.56	-0.6	-0.399	u	1	5	1	4	0	0				0	27
490845.102174541	490847.352174541	5.35	5.346269208996091	490856.45212225	490850.45217454096	490850.44844375	490850.45217454096	490850.462404792	490856.45217454096	490856.462366125	6	3.7446930010337383	0.7446930010337383	0.3100834580254741	160	618.58	-0.6	-0.399	u	1	5	1	4	0	0				0	27
490845.102174541	490848.102174541	5.35	5.346269208996091	490856.45212225	490850.45217454096	490850.44844375	490850.45217454096	490850.462404792	490856.45217454096	490856.462366125	6	3.7446930010337383	0.7446930010337383	0.3100834580254741	160	717.26	-0.6	-0.399	u	1	5	1	4	1	0				0	27
490845.102174541	490848.852174541	5.35	5.346269208996091	490856.45212225	490850.45217454096	490850.44844375	490850.45217454096	490850.462404792	490856.45217454096	490856.462366125	6	3.7446930010337383	0.7446930010337383	0.3100834580254741	160	613.67	-0.6	-0.399	u	1	5	1	4	0	0				0	27
490845.102174541	490849.602174541	5.35	5.346269208996091	490856.45212225	490850.45217454096	490850.44844375	490850.45217454096	490850.462404792	490856.45217454096	490856.462366125	6	3.7446930010337383	0.7446930010337383	0.3100834580254741	160	617.3	-0.6	-0.399	u	1	5	1	4	0	0				0	27
490845.102174541	490850.352174541	5.35	5.346269208996091	490856.45212225	490850.45217454096	490850.44844375	490850.45217454096	490850.462404792	490856.45217454096	490856.462366125	6	3.7446930010337383	0.7446930010337383	0.3100834580254741	160	626.81	-0.6	-0.399	u	1	5	1	4	0	0				0	27
490856.468372166	490856.468372166	5.35	5.348503626009915	490867.818320541	490861.81837216596	490861.816875792	490861.81837216596	490861.829127417	490867.81837216596	490867.829003334	6	4.261346001003403	0.5113460010034032	0.49375962500926107	160	616.22	-0.6	-0.399	i	1	5	1	5	0	0				0	28
490856.468372166	490857.218372166	5.35	5.348503626009915	490867.818320541	490861.81837216596	490861.816875792	490861.81837216596	490861.829127417	490867.81837216596	490867.829003334	6	4.261346001003403	0.5113460010034032	0.49375962500926107	160	616.31	-0.6	-0.399	i	1	5	1	5	0	0				0	28
490856.468372166	490857.968372166	5.35	5.348503626009915	490867.818320541	490861.81837216596	490861.816875792	490861.81837216596	490861.829127417	490867.81837216596	490867.829003334	6	4.261346001003403	0.5113460010034032	0.49375962500926107	160	619.15	-0.6	-0.399	i	1	5	1	5	0	0				0	28
490856.468372166	490858.718372166	5.35	5.348503626009915	490867.818320541	490861.81837216596	490861.816875792	490861.81837216596	490861.829127417	490867.81837216596	490867.829003334	6	4.261346001003403	0.5113460010034032	0.49375962500926107	160	624.19	-0.6	-0.399	i	1	5	1	5	0	0				0	28
490856.468372166	490859.468372166	5.35	5.348503626009915	490867.818320541	490861.81837216596	490861.816875792	490861.81837216596	490861.829127417	490867.81837216596	490867.829003334	6	4.261346001003403	0.5113460010034032	0.49375962500926107	160	625.54	-0.6	-0.399	i	1	5	1	5	0	0				0	28
490856.468372166	490860.218372166	5.35	5.348503626009915	490867.818320541	490861.81837216596	490861.816875792	490861.81837216596	490861.829127417	490867.81837216596	490867.829003334	6	4.261346001003403	0.5113460010034032	0.49375962500926107	160	707.09	-0.6	-0.399	i	1	5	1	5	1	0				0	28
490856.468372166	490860.968372166	5.35	5.348503626009915	490867.818320541	490861.81837216596	490861.816875792	490861.81837216596	490861.829127417	490867.81837216596	490867.829003334	6	4.261346001003403	0.5113460010034032	0.49375962500926107	160	638.28	-0.6	-0.399	i	1	5	1	5	0	0				0	28
490856.468372166	490861.718372166	5.35	5.348503626009915	490867.818320541	490861.81837216596	490861.816875792	490861.81837216596	490861.829127417	490867.81837216596	490867.829003334	6	4.261346001003403	0.5113460010034032	0.49375962500926107	160	634.46	-0.6	-0.399	i	1	5	1	5	0	0				0	28
490871.833302458	490871.833302458	5.35	5.349279584013857	490883.18325275	490877.18330245797	490877.182582042	490877.18330245797	490877.195409667	490883.18330245797	490883.194115042	6	3.3961650420096703	0.3961650420096703	0.3499631250160746	160	633.08	-0.6	-0.399	u	1	5	1	4	0	1	l	1	1.2723247919930145	0	29
490871.833302458	490872.583302458	5.35	5.349279584013857	490883.18325275	490877.18330245797	490877.182582042	490877.18330245797	490877.195409667	490883.18330245797	490883.194115042	6	3.3961650420096703	0.3961650420096703	0.3499631250160746	160	637.5	-0.6	-0.399	u	1	5	1	4	0	1	l	1	1.2723247919930145	0	29
490871.833302458	490873.333302458	5.35	5.349279584013857	490883.18325275	490877.18330245797	490877.182582042	490877.18330245797	490877.195409667	490883.18330245797	490883.194115042	6	3.3961650420096703	0.3961650420096703	0.3499631250160746	160	638.93	-0.6	-0.399	u	1	5	1	4	0	1	l	1	1.2723247919930145	0	29
490871.833302458	490874.083302458	5.35	5.349279584013857	490883.18325275	490877.18330245797	490877.182582042	490877.18330245797	490877.195409667	490883.18330245797	490883.194115042	6	3.3961650420096703	0.3961650420096703	0.3499631250160746	160	644.33	-0.6	-0.399	u	1	5	1	4	0	1	l	1	1.2723247919930145	0	29
490871.833302458	490874.833302458	5.35	5.349279584013857	490883.18325275	490877.18330245797	490877.182582042	490877.18330245797	490877.195409667	490883.18330245797	490883.194115042	6	3.3961650420096703	0.3961650420096703	0.3499631250160746	160	692.12	-0.6	-0.399	u	1	5	1	4	1	1	l	1	1.2723247919930145	0	29
490871.833302458	490875.583302458	5.35	5.349279584013857	490883.18325275	490877.18330245797	490877.182582042	490877.18330245797	490877.195409667	490883.18330245797	490883.194115042	6	3.3961650420096703	0.3961650420096703	0.3499631250160746	160	639.13	-0.6	-0.399	u	1	5	1	4	0	1	l	1	1.2723247919930145	0	29
490871.833302458	490876.333302458	5.35	5.349279584013857	490883.18325275	490877.18330245797	490877.182582042	490877.18330245797	490877.195409667	490883.18330245797	490883.194115042	6	3.3961650420096703	0.3961650420096703	0.3499631250160746	160	642.97	-0.6	-0.399	u	1	5	1	4	0	1	l	1	1.2723247919930145	0	29
490871.833302458	490877.083302458	5.35	5.349279584013857	490883.18325275	490877.18330245797	490877.182582042	490877.18330245797	490877.195409667	490883.18330245797	490883.194115042	6	3.3961650420096703	0.3961650420096703	0.3499631250160746	160	636.02	-0.6	-0.399	u	1	5	1	4	0	1	l	1	1.2723247919930145	0	29
490883.200127708	490883.200127708	5.35	5.349953791999724	490894.55007704097	490888.550127708	490888.5500815	490888.550127708	490888.561599125	490894.550127708	490894.562025959	6	5.079368458944373	0.5793684589443728	0.461606333963573	160	634.22	-0.6	-0.399	l	1	5	1	6	0	0				0	30
490883.200127708	490883.950127708	5.35	5.349953791999724	490894.55007704097	490888.550127708	490888.5500815	490888.550127708	490888.561599125	490894.550127708	490894.562025959	6	5.079368458944373	0.5793684589443728	0.461606333963573	160	633.82	-0.6	-0.399	l	1	5	1	6	0	0				0	30
490883.200127708	490884.700127708	5.35	5.349953791999724	490894.55007704097	490888.550127708	490888.5500815	490888.550127708	490888.561599125	490894.550127708	490894.562025959	6	5.079368458944373	0.5793684589443728	0.461606333963573	160	637.03	-0.6	-0.399	l	1	5	1	6	0	0				0	30
490883.200127708	490885.450127708	5.35	5.349953791999724	490894.55007704097	490888.550127708	490888.5500815	490888.550127708	490888.561599125	490894.550127708	490894.562025959	6	5.079368458944373	0.5793684589443728	0.461606333963573	160	624.64	-0.6	-0.399	l	1	5	1	6	0	0				0	30
490883.200127708	490886.200127708	5.35	5.349953791999724	490894.55007704097	490888.550127708	490888.5500815	490888.550127708	490888.561599125	490894.550127708	490894.562025959	6	5.079368458944373	0.5793684589443728	0.461606333963573	160	637.05	-0.6	-0.399	l	1	5	1	6	0	0				0	30
490883.200127708	490886.950127708	5.35	5.349953791999724	490894.55007704097	490888.550127708	490888.5500815	490888.550127708	490888.561599125	490894.550127708	490894.562025959	6	5.079368458944373	0.5793684589443728	0.461606333963573	160	634.78	-0.6	-0.399	l	1	5	1	6	0	0				0	30
490883.200127708	490887.700127708	5.35	5.349953791999724	490894.55007704097	490888.550127708	490888.5500815	490888.550127708	490888.561599125	490894.550127708	490894.562025959	6	5.079368458944373	0.5793684589443728	0.461606333963573	160	708.04	-0.6	-0.399	l	1	5	1	6	1	0				0	30
490883.200127708	490888.450127708	5.35	5.349953791999724	490894.55007704097	490888.550127708	490888.5500815	490888.550127708	490888.561599125	490894.550127708	490894.562025959	6	5.079368458944373	0.5793684589443728	0.461606333963573	160	632.48	-0.6	-0.399	l	1	5	1	6	0	0				0	30
490894.568201958	490894.568201958	5.35	5.346322583965957	490905.918150041	490899.918201958	490899.914524542	490899.918201958	490899.929028792	490905.918201958	490905.928631375	6	3.4766556669492275	0.47665566694922745	0.3446352499886416	160	636.71	-0.6	-0.399	u	1	5	1	4	0	0				0	31
490894.568201958	490895.318201958	5.35	5.346322583965957	490905.918150041	490899.918201958	490899.914524542	490899.918201958	490899.929028792	490905.918201958	490905.928631375	6	3.4766556669492275	0.47665566694922745	0.3446352499886416	160	638.25	-0.6	-0.399	u	1	5	1	4	0	0				0	31
490894.568201958	490896.068201958	5.35	5.346322583965957	490905.918150041	490899.918201958	490899.914524542	490899.918201958	490899.929028792	490905.918201958	490905.928631375	6	3.4766556669492275	0.47665566694922745	0.3446352499886416	160	635.0	-0.6	-0.399	u	1	5	1	4	0	0				0	31
490894.568201958	490896.818201958	5.35	5.346322583965957	490905.918150041	490899.918201958	490899.914524542	490899.918201958	490899.929028792	490905.918201958	490905.928631375	6	3.4766556669492275	0.47665566694922745	0.3446352499886416	160	630.94	-0.6	-0.399	u	1	5	1	4	0	0				0	31
490894.568201958	490897.568201958	5.35	5.346322583965957	490905.918150041	490899.918201958	490899.914524542	490899.918201958	490899.929028792	490905.918201958	490905.928631375	6	3.4766556669492275	0.47665566694922745	0.3446352499886416	160	703.9	-0.6	-0.399	u	1	5	1	4	1	0				0	31
490894.568201958	490898.318201958	5.35	5.346322583965957	490905.918150041	490899.918201958	490899.914524542	490899.918201958	490899.929028792	490905.918201958	490905.928631375	6	3.4766556669492275	0.47665566694922745	0.3446352499886416	160	628.05	-0.6	-0.399	u	1	5	1	4	0	0				0	31
490894.568201958	490899.068201958	5.35	5.346322583965957	490905.918150041	490899.918201958	490899.914524542	490899.918201958	490899.929028792	490905.918201958	490905.928631375	6	3.4766556669492275	0.47665566694922745	0.3446352499886416	160	629.31	-0.6	-0.399	u	1	5	1	4	0	0				0	31
490894.568201958	490899.818201958	5.35	5.346322583965957	490905.918150041	490899.918201958	490899.914524542	490899.918201958	490899.929028792	490905.918201958	490905.928631375	6	3.4766556669492275	0.47665566694922745	0.3446352499886416	160	635.76	-0.6	-0.399	u	1	5	1	4	0	0				0	31
490905.935024958	490905.935024958	5.35	5.34711500100093	490917.28497237497	490911.28502495796	490911.282139959	490911.28502495796	490911.295353459	490917.28502495796	490917.295357834	6	3.3277835010085255	0.3277835010085255	0.546036749961786	160	627.07	-0.6	-0.399	u	1	5	1	4	0	0				0	32
490905.935024958	490906.685024958	5.35	5.34711500100093	490917.28497237497	490911.28502495796	490911.282139959	490911.28502495796	490911.295353459	490917.28502495796	490917.295357834	6	3.3277835010085255	0.3277835010085255	0.546036749961786	160	633.76	-0.6	-0.399	u	1	5	1	4	0	0				0	32
490905.935024958	490907.435024958	5.35	5.34711500100093	490917.28497237497	490911.28502495796	490911.282139959	490911.28502495796	490911.295353459	490917.28502495796	490917.295357834	6	3.3277835010085255	0.3277835010085255	0.546036749961786	160	630.31	-0.6	-0.399	u	1	5	1	4	0	0				0	32
490905.935024958	490908.185024958	5.35	5.34711500100093	490917.28497237497	490911.28502495796	490911.282139959	490911.28502495796	490911.295353459	490917.28502495796	490917.295357834	6	3.3277835010085255	0.3277835010085255	0.546036749961786	160	636.66	-0.6	-0.399	u	1	5	1	4	0	0				0	32
490905.935024958	490908.935024958	5.35	5.34711500100093	490917.28497237497	490911.28502495796	490911.282139959	490911.28502495796	490911.295353459	490917.28502495796	490917.295357834	6	3.3277835010085255	0.3277835010085255	0.546036749961786	160	724.79	-0.6	-0.399	u	1	5	1	4	1	0				0	32
490905.935024958	490909.685024958	5.35	5.34711500100093	490917.28497237497	490911.28502495796	490911.282139959	490911.28502495796	490911.295353459	490917.28502495796	490917.295357834	6	3.3277835010085255	0.3277835010085255	0.546036749961786	160	635.04	-0.6	-0.399	u	1	5	1	4	0	0				0	32
490905.935024958	490910.435024958	5.35	5.34711500100093	490917.28497237497	490911.28502495796	490911.282139959	490911.28502495796	490911.295353459	490917.28502495796	490917.295357834	6	3.3277835010085255	0.3277835010085255	0.546036749961786	160	642.37	-0.6	-0.399	u	1	5	1	4	0	0				0	32
490905.935024958	490911.185024958	5.35	5.34711500100093	490917.28497237497	490911.28502495796	490911.282139959	490911.28502495796	490911.295353459	490917.28502495796	490917.295357834	6	3.3277835010085255	0.3277835010085255	0.546036749961786	160	636.27	-0.6	-0.399	u	1	5	1	4	0	0				0	32
490917.301222416	490917.301222416	5.35	5.347844751027878	490928.651170416	490922.65122241597	490922.649067167	490922.65122241597	490922.661184542	490928.65122241597	490928.661168	6	3.5113681679940782	0.5113681679940782	0.33074362500337884	160	642.19	-0.6	-0.399	u	1	5	1	4	0	0				0	33
490917.301222416	490918.051222416	5.35	5.347844751027878	490928.651170416	490922.65122241597	490922.649067167	490922.65122241597	490922.661184542	490928.65122241597	490928.661168	6	3.5113681679940782	0.5113681679940782	0.33074362500337884	160	636.51	-0.6	-0.399	u	1	5	1	4	0	0				0	33
490917.301222416	490918.801222416	5.35	5.347844751027878	490928.651170416	490922.65122241597	490922.649067167	490922.65122241597	490922.661184542	490928.65122241597	490928.661168	6	3.5113681679940782	0.5113681679940782	0.33074362500337884	160	632.65	-0.6	-0.399	u	1	5	1	4	0	0				0	33
490917.301222416	490919.551222416	5.35	5.347844751027878	490928.651170416	490922.65122241597	490922.649067167	490922.65122241597	490922.661184542	490928.65122241597	490928.661168	6	3.5113681679940782	0.5113681679940782	0.33074362500337884	160	632.79	-0.6	-0.399	u	1	5	1	4	0	0				0	33
490917.301222416	490920.301222416	5.35	5.347844751027878	490928.651170416	490922.65122241597	490922.649067167	490922.65122241597	490922.661184542	490928.65122241597	490928.661168	6	3.5113681679940782	0.5113681679940782	0.33074362500337884	160	745.16	-0.6	-0.399	u	1	5	1	4	1	0				0	33
490917.301222416	490921.051222416	5.35	5.347844751027878	490928.651170416	490922.65122241597	490922.649067167	490922.65122241597	490922.661184542	490928.65122241597	490928.661168	6	3.5113681679940782	0.5113681679940782	0.33074362500337884	160	632.48	-0.6	-0.399	u	1	5	1	4	0	0				0	33
490917.301222416	490921.801222416	5.35	5.347844751027878	490928.651170416	490922.65122241597	490922.649067167	490922.65122241597	490922.661184542	490928.65122241597	490928.661168	6	3.5113681679940782	0.5113681679940782	0.33074362500337884	160	629.79	-0.6	-0.399	u	1	5	1	4	0	0				0	33
490917.301222416	490922.551222416	5.35	5.347844751027878	490928.651170416	490922.65122241597	490922.649067167	490922.65122241597	490922.661184542	490928.65122241597	490928.661168	6	3.5113681679940782	0.5113681679940782	0.33074362500337884	160	626.0	-0.6	-0.399	u	1	5	1	4	0	0				0	33
490932.665215166	490932.665215166	5.35	5.346659751026891	490944.01516529097	490938.015215166	490938.011874917	490938.015215166	490938.016704584	490944.015215166	490944.016188167	6			0.523332666954957	160	623.71	-0.6	-0.399		4	5	2	0	0	1	l	1	0.5902241250150837	0	34
490932.665215166	490933.415215166	5.35	5.346659751026891	490944.01516529097	490938.015215166	490938.011874917	490938.015215166	490938.016704584	490944.015215166	490944.016188167	6			0.523332666954957	160	621.27	-0.6	-0.399		4	5	2	0	0	1	l	1	0.5902241250150837	0	34
490932.665215166	490934.165215166	5.35	5.346659751026891	490944.01516529097	490938.015215166	490938.011874917	490938.015215166	490938.016704584	490944.015215166	490944.016188167	6			0.523332666954957	160	629.95	-0.6	-0.399		4	5	2	0	0	1	l	1	0.5902241250150837	0	34
490932.665215166	490934.915215166	5.35	5.346659751026891	490944.01516529097	490938.015215166	490938.011874917	490938.015215166	490938.016704584	490944.015215166	490944.016188167	6			0.523332666954957	160	627.32	-0.6	-0.399		4	5	2	0	0	1	l	1	0.5902241250150837	0	34
490932.665215166	490935.665215166	5.35	5.346659751026891	490944.01516529097	490938.015215166	490938.011874917	490938.015215166	490938.016704584	490944.015215166	490944.016188167	6			0.523332666954957	160	618.89	-0.6	-0.399		4	5	2	0	0	1	l	1	0.5902241250150837	0	34
490932.665215166	490936.415215166	5.35	5.346659751026891	490944.01516529097	490938.015215166	490938.011874917	490938.015215166	490938.016704584	490944.015215166	490944.016188167	6			0.523332666954957	160	616.44	-0.6	-0.399		4	5	2	0	0	1	l	1	0.5902241250150837	0	34
490932.665215166	490937.165215166	5.35	5.346659751026891	490944.01516529097	490938.015215166	490938.011874917	490938.015215166	490938.016704584	490944.015215166	490944.016188167	6			0.523332666954957	160	620.42	-0.6	-0.399		4	5	2	0	0	1	l	1	0.5902241250150837	0	34
490932.665215166	490937.915215166	5.35	5.346659751026891	490944.01516529097	490938.015215166	490938.011874917	490938.015215166	490938.016704584	490944.015215166	490944.016188167	6			0.523332666954957	160	621.67	-0.6	-0.399		4	5	2	0	0	1	l	1	0.5902241250150837	0	34
490944.021727791	490944.021727791	5.35	5.343425334023777	490955.371677333	490949.371727791	490949.365153125	490949.371727791	490949.378555917	490955.371727791	490955.378485209	6	3.245568001002539	0.995568001002539	0.49986812501447275	160	619.07	-0.6	-0.399	u	0	5	0	3	0	0				0	35
490944.021727791	490944.771727791	5.35	5.343425334023777	490955.371677333	490949.371727791	490949.365153125	490949.371727791	490949.378555917	490955.371727791	490955.378485209	6	3.245568001002539	0.995568001002539	0.49986812501447275	160	618.13	-0.6	-0.399	u	0	5	0	3	0	0				0	35
490944.021727791	490945.521727791	5.35	5.343425334023777	490955.371677333	490949.371727791	490949.365153125	490949.371727791	490949.378555917	490955.371727791	490955.378485209	6	3.245568001002539	0.995568001002539	0.49986812501447275	160	622.53	-0.6	-0.399	u	0	5	0	3	0	0				0	35
490944.021727791	490946.271727791	5.35	5.343425334023777	490955.371677333	490949.371727791	490949.365153125	490949.371727791	490949.378555917	490955.371727791	490955.378485209	6	3.245568001002539	0.995568001002539	0.49986812501447275	160	747.85	-0.6	-0.399	u	0	5	0	3	1	0				0	35
490944.021727791	490947.021727791	5.35	5.343425334023777	490955.371677333	490949.371727791	490949.365153125	490949.371727791	490949.378555917	490955.371727791	490955.378485209	6	3.245568001002539	0.995568001002539	0.49986812501447275	160	621.59	-0.6	-0.399	u	0	5	0	3	0	0				0	35
490944.021727791	490947.771727791	5.35	5.343425334023777	490955.371677333	490949.371727791	490949.365153125	490949.371727791	490949.378555917	490955.371727791	490955.378485209	6	3.245568001002539	0.995568001002539	0.49986812501447275	160	624.56	-0.6	-0.399	u	0	5	0	3	0	0				0	35
490944.021727791	490948.521727791	5.35	5.343425334023777	490955.371677333	490949.371727791	490949.365153125	490949.371727791	490949.378555917	490955.371727791	490955.378485209	6	3.245568001002539	0.995568001002539	0.49986812501447275	160	617.3	-0.6	-0.399	u	0	5	0	3	0	0				0	35
490944.021727791	490949.271727791	5.35	5.343425334023777	490955.371677333	490949.371727791	490949.365153125	490949.371727791	490949.378555917	490955.371727791	490955.378485209	6	3.245568001002539	0.995568001002539	0.49986812501447275	160	622.57	-0.6	-0.399	u	0	5	0	3	0	0				0	35
490955.38448975	490955.38448975	5.35	5.348694458953105	490966.734437916	490960.73448975	490960.733184209	490960.73448975	490960.744568625	490966.73448975	490966.745066792	6	2.3945989169878885	0.8945989169878885	0.2151814170065336	160	619.57	-0.6	-0.399	v	1	5	0	2	0	0				0	36
490955.38448975	490956.13448975	5.35	5.348694458953105	490966.734437916	490960.73448975	490960.733184209	490960.73448975	490960.744568625	490966.73448975	490966.745066792	6	2.3945989169878885	0.8945989169878885	0.2151814170065336	160	620.51	-0.6	-0.399	v	1	5	0	2	0	0				0	36
490955.38448975	490956.88448975	5.35	5.348694458953105	490966.734437916	490960.73448975	490960.733184209	490960.73448975	490960.744568625	490966.73448975	490966.745066792	6	2.3945989169878885	0.8945989169878885	0.2151814170065336	160	727.82	-0.6	-0.399	v	1	5	0	2	1	0				0	36
490955.38448975	490957.63448975	5.35	5.348694458953105	490966.734437916	490960.73448975	490960.733184209	490960.73448975	490960.744568625	490966.73448975	490966.745066792	6	2.3945989169878885	0.8945989169878885	0.2151814170065336	160	614.13	-0.6	-0.399	v	1	5	0	2	0	0				0	36
490955.38448975	490958.38448975	5.35	5.348694458953105	490966.734437916	490960.73448975	490960.733184209	490960.73448975	490960.744568625	490966.73448975	490966.745066792	6	2.3945989169878885	0.8945989169878885	0.2151814170065336	160	606.85	-0.6	-0.399	v	1	5	0	2	0	0				0	36
490955.38448975	490959.13448975	5.35	5.348694458953105	490966.734437916	490960.73448975	490960.733184209	490960.73448975	490960.744568625	490966.73448975	490966.745066792	6	2.3945989169878885	0.8945989169878885	0.2151814170065336	160	609.44	-0.6	-0.399	v	1	5	0	2	0	0				0	36
490955.38448975	490959.88448975	5.35	5.348694458953105	490966.734437916	490960.73448975	490960.733184209	490960.73448975	490960.744568625	490966.73448975	490966.745066792	6	2.3945989169878885	0.8945989169878885	0.2151814170065336	160	597.96	-0.6	-0.399	v	1	5	0	2	0	0				0	36
490955.38448975	490960.63448975	5.35	5.348694458953105	490966.734437916	490960.73448975	490960.733184209	490960.73448975	490960.744568625	490966.73448975	490966.745066792	6	2.3945989169878885	0.8945989169878885	0.2151814170065336	160	591.31	-0.6	-0.399	v	1	5	0	2	0	0				0	36
490970.749107125	490970.749107125	5.35	5.346028959029354	490982.099056625	490976.09910712496	490976.095136084	490976.09910712496	490976.099255292	490982.09910712496	490982.111899959	6	2.967747375019826	0.717747375019826	0.37654970900621265	160	598.9	-0.6	-0.399	y	1	5	0	3	0	1	v	1	0.4409533749567345	0	37
490970.749107125	490971.499107125	5.35	5.346028959029354	490982.099056625	490976.09910712496	490976.095136084	490976.09910712496	490976.099255292	490982.09910712496	490982.111899959	6	2.967747375019826	0.717747375019826	0.37654970900621265	160	604.97	-0.6	-0.399	y	1	5	0	3	0	1	v	1	0.4409533749567345	0	37
490970.749107125	490972.249107125	5.35	5.346028959029354	490982.099056625	490976.09910712496	490976.095136084	490976.09910712496	490976.099255292	490982.09910712496	490982.111899959	6	2.967747375019826	0.717747375019826	0.37654970900621265	160	611.71	-0.6	-0.399	y	1	5	0	3	0	1	v	1	0.4409533749567345	0	37
490970.749107125	490972.999107125	5.35	5.346028959029354	490982.099056625	490976.09910712496	490976.095136084	490976.09910712496	490976.099255292	490982.09910712496	490982.111899959	6	2.967747375019826	0.717747375019826	0.37654970900621265	160	715.14	-0.6	-0.399	y	1	5	0	3	1	1	v	1	0.4409533749567345	0	37
490970.749107125	490973.749107125	5.35	5.346028959029354	490982.099056625	490976.09910712496	490976.095136084	490976.09910712496	490976.099255292	490982.09910712496	490982.111899959	6	2.967747375019826	0.717747375019826	0.37654970900621265	160	613.86	-0.6	-0.399	y	1	5	0	3	0	1	v	1	0.4409533749567345	0	37
490970.749107125	490974.499107125	5.35	5.346028959029354	490982.099056625	490976.09910712496	490976.095136084	490976.09910712496	490976.099255292	490982.09910712496	490982.111899959	6	2.967747375019826	0.717747375019826	0.37654970900621265	160	611.99	-0.6	-0.399	y	1	5	0	3	0	1	v	1	0.4409533749567345	0	37
490970.749107125	490975.249107125	5.35	5.346028959029354	490982.099056625	490976.09910712496	490976.095136084	490976.09910712496	490976.099255292	490982.09910712496	490982.111899959	6	2.967747375019826	0.717747375019826	0.37654970900621265	160	610.46	-0.6	-0.399	y	1	5	0	3	0	1	v	1	0.4409533749567345	0	37
490970.749107125	490975.999107125	5.35	5.346028959029354	490982.099056625	490976.09910712496	490976.095136084	490976.09910712496	490976.099255292	490982.09910712496	490982.111899959	6	2.967747375019826	0.717747375019826	0.37654970900621265	160	605.1	-0.6	-0.399	y	1	5	0	3	0	1	v	1	0.4409533749567345	0	37
490982.117806541	490982.117806541	5.35	5.349305126001127	490993.46775575	490987.46780654095	490987.467111667	490987.46780654095	490987.478382667	490993.46780654095	490993.478350959	6	2.9609312510001473	0.7109312510001473	0.2776704999851063	160	606.74	-0.6	-0.399	y	1	5	0	3	0	0				0	38
490982.117806541	490982.867806541	5.35	5.349305126001127	490993.46775575	490987.46780654095	490987.467111667	490987.46780654095	490987.478382667	490993.46780654095	490993.478350959	6	2.9609312510001473	0.7109312510001473	0.2776704999851063	160	606.34	-0.6	-0.399	y	1	5	0	3	0	0				0	38
490982.117806541	490983.617806541	5.35	5.349305126001127	490993.46775575	490987.46780654095	490987.467111667	490987.46780654095	490987.478382667	490993.46780654095	490993.478350959	6	2.9609312510001473	0.7109312510001473	0.2776704999851063	160	610.0	-0.6	-0.399	y	1	5	0	3	0	0				0	38
490982.117806541	490984.367806541	5.35	5.349305126001127	490993.46775575	490987.46780654095	490987.467111667	490987.46780654095	490987.478382667	490993.46780654095	490993.478350959	6	2.9609312510001473	0.7109312510001473	0.2776704999851063	160	724.7	-0.6	-0.399	y	1	5	0	3	1	0				0	38
490982.117806541	490985.117806541	5.35	5.349305126001127	490993.46775575	490987.46780654095	490987.467111667	490987.46780654095	490987.478382667	490993.46780654095	490993.478350959	6	2.9609312510001473	0.7109312510001473	0.2776704999851063	160	618.37	-0.6	-0.399	y	1	5	0	3	0	0				0	38
490982.117806541	490985.867806541	5.35	5.349305126001127	490993.46775575	490987.46780654095	490987.467111667	490987.46780654095	490987.478382667	490993.46780654095	490993.478350959	6	2.9609312510001473	0.7109312510001473	0.2776704999851063	160	614.31	-0.6	-0.399	y	1	5	0	3	0	0				0	38
490982.117806541	490986.617806541	5.35	5.349305126001127	490993.46775575	490987.46780654095	490987.467111667	490987.46780654095	490987.478382667	490993.46780654095	490993.478350959	6	2.9609312510001473	0.7109312510001473	0.2776704999851063	160	629.94	-0.6	-0.399	y	1	5	0	3	0	0				0	38
490982.117806541	490987.367806541	5.35	5.349305126001127	490993.46775575	490987.46780654095	490987.467111667	490987.46780654095	490987.478382667	490993.46780654095	490993.478350959	6	2.9609312510001473	0.7109312510001473	0.2776704999851063	160	627.85	-0.6	-0.399	y	1	5	0	3	0	0				0	38
490993.484005666	490993.484005666	5.35	5.348396833986044	491004.833954958	490998.83400566597	490998.8324025	490998.83400566597	490998.84507675	491004.83400566597	491004.844933125	6	4.228307293029502	1.228307293029502	0.3646072080009617	160	634.35	-0.6	-0.399	u	1	5	0	4	0	0				0	39
490993.484005666	490994.234005666	5.35	5.348396833986044	491004.833954958	490998.83400566597	490998.8324025	490998.83400566597	490998.84507675	491004.83400566597	491004.844933125	6	4.228307293029502	1.228307293029502	0.3646072080009617	160	628.24	-0.6	-0.399	u	1	5	0	4	0	0				0	39
490993.484005666	490994.984005666	5.35	5.348396833986044	491004.833954958	490998.83400566597	490998.8324025	490998.83400566597	490998.84507675	491004.83400566597	491004.844933125	6	4.228307293029502	1.228307293029502	0.3646072080009617	160	620.63	-0.6	-0.399	u	1	5	0	4	0	0				0	39
490993.484005666	490995.734005666	5.35	5.348396833986044	491004.833954958	490998.83400566597	490998.8324025	490998.83400566597	490998.84507675	491004.83400566597	491004.844933125	6	4.228307293029502	1.228307293029502	0.3646072080009617	160	625.77	-0.6	-0.399	u	1	5	0	4	0	0				0	39
490993.484005666	490996.484005666	5.35	5.348396833986044	491004.833954958	490998.83400566597	490998.8324025	490998.83400566597	490998.84507675	491004.83400566597	491004.844933125	6	4.228307293029502	1.228307293029502	0.3646072080009617	160	724.66	-0.6	-0.399	u	1	5	0	4	1	0				0	39
490993.484005666	490997.234005666	5.35	5.348396833986044	491004.833954958	490998.83400566597	490998.8324025	490998.83400566597	490998.84507675	491004.83400566597	491004.844933125	6	4.228307293029502	1.228307293029502	0.3646072080009617	160	632.8	-0.6	-0.399	u	1	5	0	4	0	0				0	39
490993.484005666	490997.984005666	5.35	5.348396833986044	491004.833954958	490998.83400566597	490998.8324025	490998.83400566597	490998.84507675	491004.83400566597	491004.844933125	6	4.228307293029502	1.228307293029502	0.3646072080009617	160	630.18	-0.6	-0.399	u	1	5	0	4	0	0				0	39
490993.484005666	490998.734005666	5.35	5.348396833986044	491004.833954958	490998.83400566597	490998.8324025	490998.83400566597	490998.84507675	491004.83400566597	491004.844933125	6	4.228307293029502	1.228307293029502	0.3646072080009617	160	618.4	-0.6	-0.399	u	1	5	0	4	0	0				0	39
491004.85114237503	491004.85114237503	5.35	5.347386291949078	491016.201091208	491010.201142375	491010.198528667	491010.201142375	491010.211671	491016.201142375	491016.211637625	6	2.297148624958936	0.7971486249589361	0.24917079199803993	160	621.06	-0.6	-0.399	v	1	5	0	2	0	0				0	40
491004.85114237503	491005.60114237503	5.35	5.347386291949078	491016.201091208	491010.201142375	491010.198528667	491010.201142375	491010.211671	491016.201142375	491016.211637625	6	2.297148624958936	0.7971486249589361	0.24917079199803993	160	625.64	-0.6	-0.399	v	1	5	0	2	0	0				0	40
491004.85114237503	491006.35114237503	5.35	5.347386291949078	491016.201091208	491010.201142375	491010.198528667	491010.201142375	491010.211671	491016.201142375	491016.211637625	6	2.297148624958936	0.7971486249589361	0.24917079199803993	160	734.07	-0.6	-0.399	v	1	5	0	2	1	0				0	40
491004.85114237503	491007.10114237503	5.35	5.347386291949078	491016.201091208	491010.201142375	491010.198528667	491010.201142375	491010.211671	491016.201142375	491016.211637625	6	2.297148624958936	0.7971486249589361	0.24917079199803993	160	628.38	-0.6	-0.399	v	1	5	0	2	0	0				0	40
491004.85114237503	491007.85114237503	5.35	5.347386291949078	491016.201091208	491010.201142375	491010.198528667	491010.201142375	491010.211671	491016.201142375	491016.211637625	6	2.297148624958936	0.7971486249589361	0.24917079199803993	160	629.59	-0.6	-0.399	v	1	5	0	2	0	0				0	40
491004.85114237503	491008.60114237503	5.35	5.347386291949078	491016.201091208	491010.201142375	491010.198528667	491010.201142375	491010.211671	491016.201142375	491016.211637625	6	2.297148624958936	0.7971486249589361	0.24917079199803993	160	624.34	-0.6	-0.399	v	1	5	0	2	0	0				0	40
491004.85114237503	491009.35114237503	5.35	5.347386291949078	491016.201091208	491010.201142375	491010.198528667	491010.201142375	491010.211671	491016.201142375	491016.211637625	6	2.297148624958936	0.7971486249589361	0.24917079199803993	160	626.15	-0.6	-0.399	v	1	5	0	2	0	0				0	40
491004.85114237503	491010.10114237503	5.35	5.347386291949078	491016.201091208	491010.201142375	491010.198528667	491010.201142375	491010.211671	491016.201142375	491016.211637625	6	2.297148624958936	0.7971486249589361	0.24917079199803993	160	627.97	-0.6	-0.399	v	1	5	0	2	0	0				0	40
491016.217341125	491016.217341125	5.35	5.348711124970578	491027.567288791	491021.567341125	491021.56605225	491021.567341125	491021.576560459	491027.567341125	491027.57823475	6	3.3108759589958936	0.3108759589958936	0.3274460830143653	160	628.59	-0.6	-0.399	u	1	5	0	4	0	0				0	41
491016.217341125	491016.967341125	5.35	5.348711124970578	491027.567288791	491021.567341125	491021.56605225	491021.567341125	491021.576560459	491027.567341125	491027.57823475	6	3.3108759589958936	0.3108759589958936	0.3274460830143653	160	637.37	-0.6	-0.399	u	1	5	0	4	0	0				0	41
491016.217341125	491017.717341125	5.35	5.348711124970578	491027.567288791	491021.567341125	491021.56605225	491021.567341125	491021.576560459	491027.567341125	491027.57823475	6	3.3108759589958936	0.3108759589958936	0.3274460830143653	160	642.02	-0.6	-0.399	u	1	5	0	4	0	0				0	41
491016.217341125	491018.467341125	5.35	5.348711124970578	491027.567288791	491021.567341125	491021.56605225	491021.567341125	491021.576560459	491027.567341125	491027.57823475	6	3.3108759589958936	0.3108759589958936	0.3274460830143653	160	643.8	-0.6	-0.399	u	1	5	0	4	0	0				0	41
491016.217341125	491019.217341125	5.35	5.348711124970578	491027.567288791	491021.567341125	491021.56605225	491021.567341125	491021.576560459	491027.567341125	491027.57823475	6	3.3108759589958936	0.3108759589958936	0.3274460830143653	160	709.89	-0.6	-0.399	u	1	5	0	4	1	0				0	41
491016.217341125	491019.967341125	5.35	5.348711124970578	491027.567288791	491021.567341125	491021.56605225	491021.567341125	491021.576560459	491027.567341125	491027.57823475	6	3.3108759589958936	0.3108759589958936	0.3274460830143653	160	645.97	-0.6	-0.399	u	1	5	0	4	0	0				0	41
491016.217341125	491020.717341125	5.35	5.348711124970578	491027.567288791	491021.567341125	491021.56605225	491021.567341125	491021.576560459	491027.567341125	491027.57823475	6	3.3108759589958936	0.3108759589958936	0.3274460830143653	160	649.14	-0.6	-0.399	u	1	5	0	4	0	0				0	41
491016.217341125	491021.467341125	5.35	5.348711124970578	491027.567288791	491021.567341125	491021.56605225	491021.567341125	491021.576560459	491027.567341125	491027.57823475	6	3.3108759589958936	0.3108759589958936	0.3274460830143653	160	647.79	-0.6	-0.399	u	1	5	0	4	0	0				0	41
491027.58385125	491027.58385125	5.35	5.349042541987728	491038.93379945797	491032.93385125	491032.932893792	491032.93385125	491032.944116959	491038.93385125	491038.944016709	6			0.5448890829575248	160	636.19	-0.6	-0.399		4	5	2	0	0	0				0	42
491027.58385125	491028.33385125	5.35	5.349042541987728	491038.93379945797	491032.93385125	491032.932893792	491032.93385125	491032.944116959	491038.93385125	491038.944016709	6			0.5448890829575248	160	648.64	-0.6	-0.399		4	5	2	0	0	0				0	42
491027.58385125	491029.08385125	5.35	5.349042541987728	491038.93379945797	491032.93385125	491032.932893792	491032.93385125	491032.944116959	491038.93385125	491038.944016709	6			0.5448890829575248	160	632.59	-0.6	-0.399		4	5	2	0	0	0				0	42
491027.58385125	491029.83385125	5.35	5.349042541987728	491038.93379945797	491032.93385125	491032.932893792	491032.93385125	491032.944116959	491038.93385125	491038.944016709	6			0.5448890829575248	160	644.72	-0.6	-0.399		4	5	2	0	0	0				0	42
491027.58385125	491030.58385125	5.35	5.349042541987728	491038.93379945797	491032.93385125	491032.932893792	491032.93385125	491032.944116959	491038.93385125	491038.944016709	6			0.5448890829575248	160	634.77	-0.6	-0.399		4	5	2	0	0	0				0	42
491027.58385125	491031.33385125	5.35	5.349042541987728	491038.93379945797	491032.93385125	491032.932893792	491032.93385125	491032.944116959	491038.93385125	491038.944016709	6			0.5448890829575248	160	644.49	-0.6	-0.399		4	5	2	0	0	0				0	42
491027.58385125	491032.08385125	5.35	5.349042541987728	491038.93379945797	491032.93385125	491032.932893792	491032.93385125	491032.944116959	491038.93385125	491038.944016709	6			0.5448890829575248	160	640.49	-0.6	-0.399		4	5	2	0	0	0				0	42
491027.58385125	491032.83385125	5.35	5.349042541987728	491038.93379945797	491032.93385125	491032.932893792	491032.93385125	491032.944116959	491038.93385125	491038.944016709	6			0.5448890829575248	160	639.18	-0.6	-0.399		4	5	2	0	0	0				0	42
491038.949736875	491038.949736875	5.35	5.3487456669681706	491050.299685458	491044.299736875	491044.298482542	491044.299736875	491044.311502125	491050.299736875	491050.310189917	6	3.4951364169828594	0.4951364169828594	0.3122515840223059	160	638.15	-0.6	-0.399	u	1	4	0	4	0	0				0	43
491038.949736875	491039.699736875	5.35	5.3487456669681706	491050.299685458	491044.299736875	491044.298482542	491044.299736875	491044.311502125	491050.299736875	491050.310189917	6	3.4951364169828594	0.4951364169828594	0.3122515840223059	160	646.92	-0.6	-0.399	u	1	4	0	4	0	0				0	43
491038.949736875	491040.449736875	5.35	5.3487456669681706	491050.299685458	491044.299736875	491044.298482542	491044.299736875	491044.311502125	491050.299736875	491050.310189917	6	3.4951364169828594	0.4951364169828594	0.3122515840223059	160	644.73	-0.6	-0.399	u	1	4	0	4	0	0				0	43
491038.949736875	491041.199736875	5.35	5.3487456669681706	491050.299685458	491044.299736875	491044.298482542	491044.299736875	491044.311502125	491050.299736875	491050.310189917	6	3.4951364169828594	0.4951364169828594	0.3122515840223059	160	637.46	-0.6	-0.399	u	1	4	0	4	0	0				0	43
491038.949736875	491041.949736875	5.35	5.3487456669681706	491050.299685458	491044.299736875	491044.298482542	491044.299736875	491044.311502125	491050.299736875	491050.310189917	6	3.4951364169828594	0.4951364169828594	0.3122515840223059	160	707.0	-0.6	-0.399	u	1	4	0	4	1	0				0	43
491038.949736875	491042.699736875	5.35	5.3487456669681706	491050.299685458	491044.299736875	491044.298482542	491044.299736875	491044.311502125	491050.299736875	491050.310189917	6	3.4951364169828594	0.4951364169828594	0.3122515840223059	160	642.7	-0.6	-0.399	u	1	4	0	4	0	0				0	43
491038.949736875	491043.449736875	5.35	5.3487456669681706	491050.299685458	491044.299736875	491044.298482542	491044.299736875	491044.311502125	491050.299736875	491050.310189917	6	3.4951364169828594	0.4951364169828594	0.3122515840223059	160	645.39	-0.6	-0.399	u	1	4	0	4	0	0				0	43
491038.949736875	491044.199736875	5.35	5.3487456669681706	491050.299685458	491044.299736875	491044.298482542	491044.299736875	491044.311502125	491050.299736875	491050.310189917	6	3.4951364169828594	0.4951364169828594	0.3122515840223059	160	651.86	-0.6	-0.399	u	1	4	0	4	0	0				0	43
491050.316560375	491050.316560375	5.35	5.347622084023897	491061.666508166	491055.66656037496	491055.664182459	491055.66656037496	491055.678096042	491061.66656037496	491061.677754042	6	3.0005877920193598	0.7505877920193598	0.3101658340310678	160	655.4	-0.6	-0.399	y	1	5	0	3	0	0				0	44
491050.316560375	491051.066560375	5.35	5.347622084023897	491061.666508166	491055.66656037496	491055.664182459	491055.66656037496	491055.678096042	491061.66656037496	491061.677754042	6	3.0005877920193598	0.7505877920193598	0.3101658340310678	160	652.47	-0.6	-0.399	y	1	5	0	3	0	0				0	44
