onset	onset_tone	duration	duration_getsecs	offset_trial	offset_sound	offset_sound_getsecs	onset_iti	onset_iti_getsecs	offset_iti	offset_iti_getsecs	ITI	rt_getsecs_trial	rt_getsecs_dev	rt_slider_getsecs	tau_std	frequency	lim_std	lim_dev	key_pressed	correct	confidence	rule	dpos	trial_type	is_catch_n_minus_one	catch_key	catch_correct	catch_rt	runs	trial_no
484366.234280833	484366.234280833	5.35	5.349405834043864	484377.584793291	484371.58428083296	484371.583686667	484371.58428083296	484371.597640625	484377.58428083296	484377.58518425	6			0.525883500056807	40	630.74	-0.6	-0.4999		4	5	2	0	0	0				0	0
484366.234280833	484366.984280833	5.35	5.349405834043864	484377.584793291	484371.58428083296	484371.583686667	484371.58428083296	484371.597640625	484377.58428083296	484377.58518425	6			0.525883500056807	40	632.45	-0.6	-0.4999		4	5	2	0	0	0				0	0
484366.234280833	484367.734280833	5.35	5.349405834043864	484377.584793291	484371.58428083296	484371.583686667	484371.58428083296	484371.597640625	484377.58428083296	484377.58518425	6			0.525883500056807	40	627.54	-0.6	-0.4999		4	5	2	0	0	0				0	0
484366.234280833	484368.484280833	5.35	5.349405834043864	484377.584793291	484371.58428083296	484371.583686667	484371.58428083296	484371.597640625	484377.58428083296	484377.58518425	6			0.525883500056807	40	627.48	-0.6	-0.4999		4	5	2	0	0	0				0	0
484366.234280833	484369.234280833	5.35	5.349405834043864	484377.584793291	484371.58428083296	484371.583686667	484371.58428083296	484371.597640625	484377.58428083296	484377.58518425	6			0.525883500056807	40	633.11	-0.6	-0.4999		4	5	2	0	0	0				0	0
484366.234280833	484369.984280833	5.35	5.349405834043864	484377.584793291	484371.58428083296	484371.583686667	484371.58428083296	484371.597640625	484377.58428083296	484377.58518425	6			0.525883500056807	40	634.88	-0.6	-0.4999		4	5	2	0	0	0				0	0
484366.234280833	484370.734280833	5.35	5.349405834043864	484377.584793291	484371.58428083296	484371.583686667	484371.58428083296	484371.597640625	484377.58428083296	484377.58518425	6			0.525883500056807	40	634.66	-0.6	-0.4999		4	5	2	0	0	0				0	0
484366.234280833	484371.484280833	5.35	5.349405834043864	484377.584793291	484371.58428083296	484371.583686667	484371.58428083296	484371.597640625	484377.58428083296	484377.58518425	6			0.525883500056807	40	628.31	-0.6	-0.4999		4	5	2	0	0	0				0	0
484377.59104325	484377.59104325	5.35	5.344852167007048	484388.940993291	484382.94104325	484382.935895417	484382.94104325	484382.947671709	484388.94104325	484388.947556459	6				40	627.95	-0.6	-0.4999		3		1	4	0	0				0	1
484377.59104325	484378.34104325	5.35	5.344852167007048	484388.940993291	484382.94104325	484382.935895417	484382.94104325	484382.947671709	484388.94104325	484388.947556459	6				40	624.95	-0.6	-0.4999		3		1	4	0	0				0	1
484377.59104325	484379.09104325	5.35	5.344852167007048	484388.940993291	484382.94104325	484382.935895417	484382.94104325	484382.947671709	484388.94104325	484388.947556459	6				40	625.98	-0.6	-0.4999		3		1	4	0	0				0	1
484377.59104325	484379.84104325	5.35	5.344852167007048	484388.940993291	484382.94104325	484382.935895417	484382.94104325	484382.947671709	484388.94104325	484388.947556459	6				40	626.85	-0.6	-0.4999		3		1	4	0	0				0	1
484377.59104325	484380.59104325	5.35	5.344852167007048	484388.940993291	484382.94104325	484382.935895417	484382.94104325	484382.947671709	484388.94104325	484388.947556459	6				40	667.19	-0.6	-0.4999		3		1	4	1	0				0	1
484377.59104325	484381.34104325	5.35	5.344852167007048	484388.940993291	484382.94104325	484382.935895417	484382.94104325	484382.947671709	484388.94104325	484388.947556459	6				40	627.12	-0.6	-0.4999		3		1	4	0	0				0	1
484377.59104325	484382.09104325	5.35	5.344852167007048	484388.940993291	484382.94104325	484382.935895417	484382.94104325	484382.947671709	484388.94104325	484388.947556459	6				40	629.92	-0.6	-0.4999		3		1	4	0	0				0	1
484377.59104325	484382.84104325	5.35	5.344852167007048	484388.940993291	484382.94104325	484382.935895417	484382.94104325	484382.947671709	484388.94104325	484388.947556459	6				40	626.76	-0.6	-0.4999		3		1	4	0	0				0	1
484392.951601041	484392.951601041	5.35	5.347169334010687	484404.301555875	484398.301601041	484398.298770375	484398.301601041	484398.312808334	484404.301601041	484404.312927084	6				40	625.08	-0.6	-0.4999		3		1	4	0	1				0	2
484392.951601041	484393.701601041	5.35	5.347169334010687	484404.301555875	484398.301601041	484398.298770375	484398.301601041	484398.312808334	484404.301601041	484404.312927084	6				40	619.45	-0.6	-0.4999		3		1	4	0	1				0	2
484392.951601041	484394.451601041	5.35	5.347169334010687	484404.301555875	484398.301601041	484398.298770375	484398.301601041	484398.312808334	484404.301601041	484404.312927084	6				40	619.8	-0.6	-0.4999		3		1	4	0	1				0	2
484392.951601041	484395.201601041	5.35	5.347169334010687	484404.301555875	484398.301601041	484398.298770375	484398.301601041	484398.312808334	484404.301601041	484404.312927084	6				40	613.2	-0.6	-0.4999		3		1	4	0	1				0	2
484392.951601041	484395.951601041	5.35	5.347169334010687	484404.301555875	484398.301601041	484398.298770375	484398.301601041	484398.312808334	484404.301601041	484404.312927084	6				40	665.18	-0.6	-0.4999		3		1	4	1	1				0	2
484392.951601041	484396.701601041	5.35	5.347169334010687	484404.301555875	484398.301601041	484398.298770375	484398.301601041	484398.312808334	484404.301601041	484404.312927084	6				40	611.34	-0.6	-0.4999		3		1	4	0	1				0	2
484392.951601041	484397.451601041	5.35	5.347169334010687	484404.301555875	484398.301601041	484398.298770375	484398.301601041	484398.312808334	484404.301601041	484404.312927084	6				40	614.23	-0.6	-0.4999		3		1	4	0	1				0	2
484392.951601041	484398.201601041	5.35	5.347169334010687	484404.301555875	484398.301601041	484398.298770375	484398.301601041	484398.312808334	484404.301601041	484404.312927084	6				40	611.59	-0.6	-0.4999		3		1	4	0	1				0	2
484404.316868291	484404.316868291	5.35	5.348572459013667	484415.66682625	484409.666868291	484409.66544075	484409.666868291	484409.67941325	484415.666868291	484415.678207209	6				40	612.15	-0.6	-0.4999		3		1	4	0	0				0	3
484404.316868291	484405.066868291	5.35	5.348572459013667	484415.66682625	484409.666868291	484409.66544075	484409.666868291	484409.67941325	484415.666868291	484415.678207209	6				40	614.18	-0.6	-0.4999		3		1	4	0	0				0	3
484404.316868291	484405.816868291	5.35	5.348572459013667	484415.66682625	484409.666868291	484409.66544075	484409.666868291	484409.67941325	484415.666868291	484415.678207209	6				40	606.54	-0.6	-0.4999		3		1	4	0	0				0	3
484404.316868291	484406.566868291	5.35	5.348572459013667	484415.66682625	484409.666868291	484409.66544075	484409.666868291	484409.67941325	484415.666868291	484415.678207209	6				40	609.64	-0.6	-0.4999		3		1	4	0	0				0	3
484404.316868291	484407.316868291	5.35	5.348572459013667	484415.66682625	484409.666868291	484409.66544075	484409.666868291	484409.67941325	484415.666868291	484415.678207209	6				40	668.15	-0.6	-0.4999		3		1	4	1	0				0	3
484404.316868291	484408.066868291	5.35	5.348572459013667	484415.66682625	484409.666868291	484409.66544075	484409.666868291	484409.67941325	484415.666868291	484415.678207209	6				40	602.2	-0.6	-0.4999		3		1	4	0	0				0	3
484404.316868291	484408.816868291	5.35	5.348572459013667	484415.66682625	484409.666868291	484409.66544075	484409.666868291	484409.67941325	484415.666868291	484415.678207209	6				40	602.7	-0.6	-0.4999		3		1	4	0	0				0	3
484404.316868291	484409.566868291	5.35	5.348572459013667	484415.66682625	484409.666868291	484409.66544075	484409.666868291	484409.67941325	484415.666868291	484415.678207209	6				40	604.41	-0.6	-0.4999		3		1	4	0	0				0	3
484415.682451208	484415.682451208	5.35	5.347120542021003	484427.032412166	484421.032451208	484421.02957175	484421.032451208	484421.032542417	484427.032451208	484427.045975959	6				40	605.23	-0.6	-0.4999		3		1	6	0	0				0	4
484415.682451208	484416.432451208	5.35	5.347120542021003	484427.032412166	484421.032451208	484421.02957175	484421.032451208	484421.032542417	484427.032451208	484427.045975959	6				40	604.46	-0.6	-0.4999		3		1	6	0	0				0	4
484415.682451208	484417.182451208	5.35	5.347120542021003	484427.032412166	484421.032451208	484421.02957175	484421.032451208	484421.032542417	484427.032451208	484427.045975959	6				40	605.86	-0.6	-0.4999		3		1	6	0	0				0	4
484415.682451208	484417.932451208	5.35	5.347120542021003	484427.032412166	484421.032451208	484421.02957175	484421.032451208	484421.032542417	484427.032451208	484427.045975959	6				40	604.79	-0.6	-0.4999		3		1	6	0	0				0	4
484415.682451208	484418.682451208	5.35	5.347120542021003	484427.032412166	484421.032451208	484421.02957175	484421.032451208	484421.032542417	484427.032451208	484427.045975959	6				40	608.38	-0.6	-0.4999		3		1	6	0	0				0	4
484415.682451208	484419.432451208	5.35	5.347120542021003	484427.032412166	484421.032451208	484421.02957175	484421.032451208	484421.032542417	484427.032451208	484427.045975959	6				40	606.85	-0.6	-0.4999		3		1	6	0	0				0	4
484415.682451208	484420.182451208	5.35	5.347120542021003	484427.032412166	484421.032451208	484421.02957175	484421.032451208	484421.032542417	484427.032451208	484427.045975959	6				40	670.53	-0.6	-0.4999		3		1	6	1	0				0	4
484415.682451208	484420.932451208	5.35	5.347120542021003	484427.032412166	484421.032451208	484421.02957175	484421.032451208	484421.032542417	484427.032451208	484427.045975959	6				40	608.12	-0.6	-0.4999		3		1	6	0	0				0	4
484431.05021225	484431.05021225	5.35	5.348524667031597	484442.400179625	484436.40021224995	484436.398736917	484436.40021224995	484436.41266475	484442.40021224995	484442.412650417	6				40	608.34	-0.6	-0.4999		3		0	2	0	1				0	5
484431.05021225	484431.80021225	5.35	5.348524667031597	484442.400179625	484436.40021224995	484436.398736917	484436.40021224995	484436.41266475	484442.40021224995	484442.412650417	6				40	604.4	-0.6	-0.4999		3		0	2	0	1				0	5
484431.05021225	484432.55021225	5.35	5.348524667031597	484442.400179625	484436.40021224995	484436.398736917	484436.40021224995	484436.41266475	484442.40021224995	484442.412650417	6				40	674.85	-0.6	-0.4999		3		0	2	1	1				0	5
484431.05021225	484433.30021225	5.35	5.348524667031597	484442.400179625	484436.40021224995	484436.398736917	484436.40021224995	484436.41266475	484442.40021224995	484442.412650417	6				40	610.72	-0.6	-0.4999		3		0	2	0	1				0	5
484431.05021225	484434.05021225	5.35	5.348524667031597	484442.400179625	484436.40021224995	484436.398736917	484436.40021224995	484436.41266475	484442.40021224995	484442.412650417	6				40	614.15	-0.6	-0.4999		3		0	2	0	1				0	5
484431.05021225	484434.80021225	5.35	5.348524667031597	484442.400179625	484436.40021224995	484436.398736917	484436.40021224995	484436.41266475	484442.40021224995	484442.412650417	6				40	611.59	-0.6	-0.4999		3		0	2	0	1				0	5
484431.05021225	484435.55021225	5.35	5.348524667031597	484442.400179625	484436.40021224995	484436.398736917	484436.40021224995	484436.41266475	484442.40021224995	484442.412650417	6				40	603.56	-0.6	-0.4999		3		0	2	0	1				0	5
484431.05021225	484436.30021225	5.35	5.348524667031597	484442.400179625	484436.40021224995	484436.398736917	484436.40021224995	484436.41266475	484442.40021224995	484442.412650417	6				40	605.22	-0.6	-0.4999		3		0	2	0	1				0	5
484442.416742083	484442.416742083	5.35	5.348601625999436	484453.766712166	484447.76674208295	484447.765343709	484447.76674208295	484447.77928	484453.76674208295	484453.77925825	6				40	603.43	-0.6	-0.4999		3		0	4	0	0				0	6
484442.416742083	484443.166742083	5.35	5.348601625999436	484453.766712166	484447.76674208295	484447.765343709	484447.76674208295	484447.77928	484453.76674208295	484453.77925825	6				40	605.81	-0.6	-0.4999		3		0	4	0	0				0	6
484442.416742083	484443.916742083	5.35	5.348601625999436	484453.766712166	484447.76674208295	484447.765343709	484447.76674208295	484447.77928	484453.76674208295	484453.77925825	6				40	605.32	-0.6	-0.4999		3		0	4	0	0				0	6
484442.416742083	484444.666742083	5.35	5.348601625999436	484453.766712166	484447.76674208295	484447.765343709	484447.76674208295	484447.77928	484453.76674208295	484453.77925825	6				40	608.32	-0.6	-0.4999		3		0	4	0	0				0	6
484442.416742083	484445.416742083	5.35	5.348601625999436	484453.766712166	484447.76674208295	484447.765343709	484447.76674208295	484447.77928	484453.76674208295	484453.77925825	6				40	682.43	-0.6	-0.4999		3		0	4	1	0				0	6
484442.416742083	484446.166742083	5.35	5.348601625999436	484453.766712166	484447.76674208295	484447.765343709	484447.76674208295	484447.77928	484453.76674208295	484453.77925825	6				40	605.11	-0.6	-0.4999		3		0	4	0	0				0	6
484442.416742083	484446.916742083	5.35	5.348601625999436	484453.766712166	484447.76674208295	484447.765343709	484447.76674208295	484447.77928	484453.76674208295	484453.77925825	6				40	606.11	-0.6	-0.4999		3		0	4	0	0				0	6
484442.416742083	484447.666742083	5.35	5.348601625999436	484453.766712166	484447.76674208295	484447.765343709	484447.76674208295	484447.77928	484453.76674208295	484453.77925825	6				40	605.8	-0.6	-0.4999		3		0	4	0	0				0	6
484453.783274625	484453.783274625	5.35	5.348738208995201	484465.133246416	484459.133274625	484459.132012834	484459.133274625	484459.146043917	484465.133274625	484465.146010334	6				40	604.84	-0.6	-0.4999		4		2	0	0	0				0	7
484453.783274625	484454.533274625	5.35	5.348738208995201	484465.133246416	484459.133274625	484459.132012834	484459.133274625	484459.146043917	484465.133274625	484465.146010334	6				40	600.95	-0.6	-0.4999		4		2	0	0	0				0	7
484453.783274625	484455.283274625	5.35	5.348738208995201	484465.133246416	484459.133274625	484459.132012834	484459.133274625	484459.146043917	484465.133274625	484465.146010334	6				40	605.31	-0.6	-0.4999		4		2	0	0	0				0	7
484453.783274625	484456.033274625	5.35	5.348738208995201	484465.133246416	484459.133274625	484459.132012834	484459.133274625	484459.146043917	484465.133274625	484465.146010334	6				40	605.95	-0.6	-0.4999		4		2	0	0	0				0	7
484453.783274625	484456.783274625	5.35	5.348738208995201	484465.133246416	484459.133274625	484459.132012834	484459.133274625	484459.146043917	484465.133274625	484465.146010334	6				40	614.54	-0.6	-0.4999		4		2	0	0	0				0	7
484453.783274625	484457.533274625	5.35	5.348738208995201	484465.133246416	484459.133274625	484459.132012834	484459.133274625	484459.146043917	484465.133274625	484465.146010334	6				40	617.11	-0.6	-0.4999		4		2	0	0	0				0	7
484453.783274625	484458.283274625	5.35	5.348738208995201	484465.133246416	484459.133274625	484459.132012834	484459.133274625	484459.146043917	484465.133274625	484465.146010334	6				40	617.81	-0.6	-0.4999		4		2	0	0	0				0	7
484453.783274625	484459.033274625	5.35	5.348738208995201	484465.133246416	484459.133274625	484459.132012834	484459.133274625	484459.146043917	484465.133274625	484465.146010334	6				40	616.27	-0.6	-0.4999		4		2	0	0	0				0	7
484465.150121375	484465.150121375	5.35	5.34857616701629	484476.500095125	484470.50012137496	484470.498697542	484470.50012137496	484470.512580542	484476.50012137496	484476.512644292	6				40	615.96	-0.6	-0.4999		3		1	5	0	0				0	8
484465.150121375	484465.900121375	5.35	5.34857616701629	484476.500095125	484470.50012137496	484470.498697542	484470.50012137496	484470.512580542	484476.50012137496	484476.512644292	6				40	611.8	-0.6	-0.4999		3		1	5	0	0				0	8
484465.150121375	484466.650121375	5.35	5.34857616701629	484476.500095125	484470.50012137496	484470.498697542	484470.50012137496	484470.512580542	484476.50012137496	484476.512644292	6				40	613.07	-0.6	-0.4999		3		1	5	0	0				0	8
484465.150121375	484467.400121375	5.35	5.34857616701629	484476.500095125	484470.50012137496	484470.498697542	484470.50012137496	484470.512580542	484476.50012137496	484476.512644292	6				40	613.07	-0.6	-0.4999		3		1	5	0	0				0	8
484465.150121375	484468.150121375	5.35	5.34857616701629	484476.500095125	484470.50012137496	484470.498697542	484470.50012137496	484470.512580542	484476.50012137496	484476.512644292	6				40	607.34	-0.6	-0.4999		3		1	5	0	0				0	8
484465.150121375	484468.900121375	5.35	5.34857616701629	484476.500095125	484470.50012137496	484470.498697542	484470.50012137496	484470.512580542	484476.50012137496	484476.512644292	6				40	653.06	-0.6	-0.4999		3		1	5	1	0				0	8
484465.150121375	484469.650121375	5.35	5.34857616701629	484476.500095125	484470.50012137496	484470.498697542	484470.50012137496	484470.512580542	484476.50012137496	484476.512644292	6				40	606.81	-0.6	-0.4999		3		1	5	0	0				0	8
484465.150121375	484470.400121375	5.35	5.34857616701629	484476.500095125	484470.50012137496	484470.498697542	484470.50012137496	484470.512580542	484476.50012137496	484476.512644292	6				40	609.25	-0.6	-0.4999		3		1	5	0	0				0	8
484476.516657583	484476.516657583	5.35	5.348707251017913	484487.86663425	484481.866657583	484481.865364834	484481.866657583	484481.879193042	484487.866657583	484487.879243042	6				40	610.13	-0.6	-0.4999		3		1	4	0	0				0	9
484476.516657583	484477.266657583	5.35	5.348707251017913	484487.86663425	484481.866657583	484481.865364834	484481.866657583	484481.879193042	484487.866657583	484487.879243042	6				40	613.17	-0.6	-0.4999		3		1	4	0	0				0	9
484476.516657583	484478.016657583	5.35	5.348707251017913	484487.86663425	484481.866657583	484481.865364834	484481.866657583	484481.879193042	484487.866657583	484487.879243042	6				40	614.19	-0.6	-0.4999		3		1	4	0	0				0	9
484476.516657583	484478.766657583	5.35	5.348707251017913	484487.86663425	484481.866657583	484481.865364834	484481.866657583	484481.879193042	484487.866657583	484487.879243042	6				40	617.05	-0.6	-0.4999		3		1	4	0	0				0	9
484476.516657583	484479.516657583	5.35	5.348707251017913	484487.86663425	484481.866657583	484481.865364834	484481.866657583	484481.879193042	484487.866657583	484487.879243042	6				40	650.23	-0.6	-0.4999		3		1	4	1	0				0	9
484476.516657583	484480.266657583	5.35	5.348707251017913	484487.86663425	484481.866657583	484481.865364834	484481.866657583	484481.879193042	484487.866657583	484487.879243042	6				40	609.15	-0.6	-0.4999		3		1	4	0	0				0	9
484476.516657583	484481.016657583	5.35	5.348707251017913	484487.86663425	484481.866657583	484481.865364834	484481.866657583	484481.879193042	484487.866657583	484487.879243042	6				40	604.85	-0.6	-0.4999		3		1	4	0	0				0	9
484476.516657583	484481.766657583	5.35	5.348707251017913	484487.86663425	484481.866657583	484481.865364834	484481.866657583	484481.879193042	484487.866657583	484487.879243042	6				40	603.79	-0.6	-0.4999		3		1	4	0	0				0	9
484487.883196708	484487.883196708	5.35	5.348696876026224	484499.23317420797	484493.23319670797	484493.231893584	484493.23319670797	484493.245853875	484499.23319670797	484499.245955917	6				40	604.31	-0.6	-0.4999		3		0	4	0	0				0	10
484487.883196708	484488.633196708	5.35	5.348696876026224	484499.23317420797	484493.23319670797	484493.231893584	484493.23319670797	484493.245853875	484499.23319670797	484499.245955917	6				40	605.74	-0.6	-0.4999		3		0	4	0	0				0	10
484487.883196708	484489.383196708	5.35	5.348696876026224	484499.23317420797	484493.23319670797	484493.231893584	484493.23319670797	484493.245853875	484499.23319670797	484499.245955917	6				40	604.85	-0.6	-0.4999		3		0	4	0	0				0	10
484487.883196708	484490.133196708	5.35	5.348696876026224	484499.23317420797	484493.23319670797	484493.231893584	484493.23319670797	484493.245853875	484499.23319670797	484499.245955917	6				40	608.0	-0.6	-0.4999		3		0	4	0	0				0	10
484487.883196708	484490.883196708	5.35	5.348696876026224	484499.23317420797	484493.23319670797	484493.231893584	484493.23319670797	484493.245853875	484499.23319670797	484499.245955917	6				40	673.16	-0.6	-0.4999		3		0	4	1	0				0	10
484487.883196708	484491.633196708	5.35	5.348696876026224	484499.23317420797	484493.23319670797	484493.231893584	484493.23319670797	484493.245853875	484499.23319670797	484499.245955917	6				40	617.09	-0.6	-0.4999		3		0	4	0	0				0	10
484487.883196708	484492.383196708	5.35	5.348696876026224	484499.23317420797	484493.23319670797	484493.231893584	484493.23319670797	484493.245853875	484499.23319670797	484499.245955917	6				40	614.2	-0.6	-0.4999		3		0	4	0	0				0	10
484487.883196708	484493.133196708	5.35	5.348696876026224	484499.23317420797	484493.23319670797	484493.231893584	484493.23319670797	484493.245853875	484499.23319670797	484499.245955917	6				40	610.96	-0.6	-0.4999		3		0	4	0	0				0	10
484499.250049166	484499.250049166	5.35	5.348512626020238	484510.600027791	484504.60004916595	484504.598561792	484504.60004916595	484504.612456042	484510.60004916595	484510.612590417	6				40	610.61	-0.6	-0.4999		3		0	4	0	0				0	11
484499.250049166	484500.000049166	5.35	5.348512626020238	484510.600027791	484504.60004916595	484504.598561792	484504.60004916595	484504.612456042	484510.60004916595	484510.612590417	6				40	614.11	-0.6	-0.4999		3		0	4	0	0				0	11
484499.250049166	484500.750049166	5.35	5.348512626020238	484510.600027791	484504.60004916595	484504.598561792	484504.60004916595	484504.612456042	484510.60004916595	484510.612590417	6				40	612.03	-0.6	-0.4999		3		0	4	0	0				0	11
484499.250049166	484501.500049166	5.35	5.348512626020238	484510.600027791	484504.60004916595	484504.598561792	484504.60004916595	484504.612456042	484510.60004916595	484510.612590417	6				40	611.21	-0.6	-0.4999		3		0	4	0	0				0	11
484499.250049166	484502.250049166	5.35	5.348512626020238	484510.600027791	484504.60004916595	484504.598561792	484504.60004916595	484504.612456042	484510.60004916595	484510.612590417	6				40	676.93	-0.6	-0.4999		3		0	4	1	0				0	11
484499.250049166	484503.000049166	5.35	5.348512626020238	484510.600027791	484504.60004916595	484504.598561792	484504.60004916595	484504.612456042	484510.60004916595	484510.612590417	6				40	606.32	-0.6	-0.4999		3		0	4	0	0				0	11
484499.250049166	484503.750049166	5.35	5.348512626020238	484510.600027791	484504.60004916595	484504.598561792	484504.60004916595	484504.612456042	484510.60004916595	484510.612590417	6				40	608.14	-0.6	-0.4999		3		0	4	0	0				0	11
484499.250049166	484504.500049166	5.35	5.348512626020238	484510.600027791	484504.60004916595	484504.598561792	484504.60004916595	484504.612456042	484510.60004916595	484510.612590417	6				40	613.98	-0.6	-0.4999		3		0	4	0	0				0	11
484510.61659025	484510.61659025	5.35	5.348242459003814	484521.966570541	484515.96659024997	484515.964832709	484515.96659024997	484515.979182209	484521.96659024997	484521.97928625	6				40	610.67	-0.6	-0.4999		3		1	5	0	0				0	12
484510.61659025	484511.36659025	5.35	5.348242459003814	484521.966570541	484515.96659024997	484515.964832709	484515.96659024997	484515.979182209	484521.96659024997	484521.97928625	6				40	611.15	-0.6	-0.4999		3		1	5	0	0				0	12
484510.61659025	484512.11659025	5.35	5.348242459003814	484521.966570541	484515.96659024997	484515.964832709	484515.96659024997	484515.979182209	484521.96659024997	484521.97928625	6				40	612.92	-0.6	-0.4999		3		1	5	0	0				0	12
484510.61659025	484512.86659025	5.35	5.348242459003814	484521.966570541	484515.96659024997	484515.964832709	484515.96659024997	484515.979182209	484521.96659024997	484521.97928625	6				40	612.52	-0.6	-0.4999		3		1	5	0	0				0	12
484510.61659025	484513.61659025	5.35	5.348242459003814	484521.966570541	484515.96659024997	484515.964832709	484515.96659024997	484515.979182209	484521.96659024997	484521.97928625	6				40	610.32	-0.6	-0.4999		3		1	5	0	0				0	12
484510.61659025	484514.36659025	5.35	5.348242459003814	484521.966570541	484515.96659024997	484515.964832709	484515.96659024997	484515.979182209	484521.96659024997	484521.97928625	6				40	684.89	-0.6	-0.4999		3		1	5	1	0				0	12
484510.61659025	484515.11659025	5.35	5.348242459003814	484521.966570541	484515.96659024997	484515.964832709	484515.96659024997	484515.979182209	484521.96659024997	484521.97928625	6				40	605.0	-0.6	-0.4999		3		1	5	0	0				0	12
484510.61659025	484515.86659025	5.35	5.348242459003814	484521.966570541	484515.96659024997	484515.964832709	484515.96659024997	484515.979182209	484521.96659024997	484521.97928625	6				40	604.8	-0.6	-0.4999		3		1	5	0	0				0	12
484525.983750958	484525.983750958	5.35	5.3480825839797035	484537.333733791	484531.333750958	484531.331833542	484531.333750958	484531.345839	484537.333750958	484537.345732875	6				40	601.98	-0.6	-0.4999		3		1	5	0	1				0	13
484525.983750958	484526.733750958	5.35	5.3480825839797035	484537.333733791	484531.333750958	484531.331833542	484531.333750958	484531.345839	484537.333750958	484537.345732875	6				40	606.07	-0.6	-0.4999		3		1	5	0	1				0	13
484525.983750958	484527.483750958	5.35	5.3480825839797035	484537.333733791	484531.333750958	484531.331833542	484531.333750958	484531.345839	484537.333750958	484537.345732875	6				40	609.89	-0.6	-0.4999		3		1	5	0	1				0	13
484525.983750958	484528.233750958	5.35	5.3480825839797035	484537.333733791	484531.333750958	484531.331833542	484531.333750958	484531.345839	484537.333750958	484537.345732875	6				40	610.87	-0.6	-0.4999		3		1	5	0	1				0	13
484525.983750958	484528.983750958	5.35	5.3480825839797035	484537.333733791	484531.333750958	484531.331833542	484531.333750958	484531.345839	484537.333750958	484537.345732875	6				40	612.27	-0.6	-0.4999		3		1	5	0	1				0	13
484525.983750958	484529.733750958	5.35	5.3480825839797035	484537.333733791	484531.333750958	484531.331833542	484531.333750958	484531.345839	484537.333750958	484537.345732875	6				40	680.61	-0.6	-0.4999		3		1	5	1	1				0	13
484525.983750958	484530.483750958	5.35	5.3480825839797035	484537.333733791	484531.333750958	484531.331833542	484531.333750958	484531.345839	484537.333750958	484537.345732875	6				40	619.75	-0.6	-0.4999		3		1	5	0	1				0	13
484525.983750958	484531.233750958	5.35	5.3480825839797035	484537.333733791	484531.333750958	484531.331833542	484531.333750958	484531.345839	484537.333750958	484537.345732875	6				40	615.14	-0.6	-0.4999		3		1	5	0	1				0	13
484537.34967125	484537.34967125	5.35	5.348897125048097	484548.699654416	484542.69967124995	484542.698568375	484542.69967124995	484542.712441667	484548.69967124995	484548.712511584	6				40	615.11	-0.6	-0.4999		3		1	6	0	0				0	14
484537.34967125	484538.09967125	5.35	5.348897125048097	484548.699654416	484542.69967124995	484542.698568375	484542.69967124995	484542.712441667	484548.69967124995	484548.712511584	6				40	610.09	-0.6	-0.4999		3		1	6	0	0				0	14
484537.34967125	484538.84967125	5.35	5.348897125048097	484548.699654416	484542.69967124995	484542.698568375	484542.69967124995	484542.712441667	484548.69967124995	484548.712511584	6				40	613.48	-0.6	-0.4999		3		1	6	0	0				0	14
484537.34967125	484539.59967125	5.35	5.348897125048097	484548.699654416	484542.69967124995	484542.698568375	484542.69967124995	484542.712441667	484548.69967124995	484548.712511584	6				40	604.33	-0.6	-0.4999		3		1	6	0	0				0	14
484537.34967125	484540.34967125	5.35	5.348897125048097	484548.699654416	484542.69967124995	484542.698568375	484542.69967124995	484542.712441667	484548.69967124995	484548.712511584	6				40	601.44	-0.6	-0.4999		3		1	6	0	0				0	14
484537.34967125	484541.09967125	5.35	5.348897125048097	484548.699654416	484542.69967124995	484542.698568375	484542.69967124995	484542.712441667	484548.69967124995	484548.712511584	6				40	605.01	-0.6	-0.4999		3		1	6	0	0				0	14
484537.34967125	484541.84967125	5.35	5.348897125048097	484548.699654416	484542.69967124995	484542.698568375	484542.69967124995	484542.712441667	484548.69967124995	484548.712511584	6				40	677.67	-0.6	-0.4999		3		1	6	1	0				0	14
484537.34967125	484542.59967125	5.35	5.348897125048097	484548.699654416	484542.69967124995	484542.698568375	484542.69967124995	484542.712441667	484548.69967124995	484548.712511584	6				40	598.85	-0.6	-0.4999		3		1	6	0	0				0	14
484548.716529416	484548.716529416	5.35	5.348590709036216	484560.06651312497	484554.06652941596	484554.065120125	484554.06652941596	484554.079196625	484560.06652941596	484560.066801292	6				40	598.0	-0.6	-0.4999		3		1	5	0	0				0	15
484548.716529416	484549.466529416	5.35	5.348590709036216	484560.06651312497	484554.06652941596	484554.065120125	484554.06652941596	484554.079196625	484560.06652941596	484560.066801292	6				40	601.9	-0.6	-0.4999		3		1	5	0	0				0	15
484548.716529416	484550.216529416	5.35	5.348590709036216	484560.06651312497	484554.06652941596	484554.065120125	484554.06652941596	484554.079196625	484560.06652941596	484560.066801292	6				40	603.34	-0.6	-0.4999		3		1	5	0	0				0	15
484548.716529416	484550.966529416	5.35	5.348590709036216	484560.06651312497	484554.06652941596	484554.065120125	484554.06652941596	484554.079196625	484560.06652941596	484560.066801292	6				40	602.82	-0.6	-0.4999		3		1	5	0	0				0	15
484548.716529416	484551.716529416	5.35	5.348590709036216	484560.06651312497	484554.06652941596	484554.065120125	484554.06652941596	484554.079196625	484560.06652941596	484560.066801292	6				40	601.15	-0.6	-0.4999		3		1	5	0	0				0	15
484548.716529416	484552.466529416	5.35	5.348590709036216	484560.06651312497	484554.06652941596	484554.065120125	484554.06652941596	484554.079196625	484560.06652941596	484560.066801292	6				40	663.9	-0.6	-0.4999		3		1	5	1	0				0	15
484548.716529416	484553.216529416	5.35	5.348590709036216	484560.06651312497	484554.06652941596	484554.065120125	484554.06652941596	484554.079196625	484560.06652941596	484560.066801292	6				40	603.09	-0.6	-0.4999		3		1	5	0	0				0	15
484548.716529416	484553.966529416	5.35	5.348590709036216	484560.06651312497	484554.06652941596	484554.065120125	484554.06652941596	484554.079196625	484560.06652941596	484560.066801292	6				40	610.29	-0.6	-0.4999		3		1	5	0	0				0	15
484560.071200625	484560.071200625	5.35	5.343937458994333	484571.421184916	484565.42120062496	484565.415138084	484565.42120062496	484565.429162334	484571.42120062496	484571.429197084	6				40	608.29	-0.6	-0.4999		3		1	6	0	0				0	16
484560.071200625	484560.821200625	5.35	5.343937458994333	484571.421184916	484565.42120062496	484565.415138084	484565.42120062496	484565.429162334	484571.42120062496	484571.429197084	6				40	603.11	-0.6	-0.4999		3		1	6	0	0				0	16
484560.071200625	484561.571200625	5.35	5.343937458994333	484571.421184916	484565.42120062496	484565.415138084	484565.42120062496	484565.429162334	484571.42120062496	484571.429197084	6				40	606.98	-0.6	-0.4999		3		1	6	0	0				0	16
484560.071200625	484562.321200625	5.35	5.343937458994333	484571.421184916	484565.42120062496	484565.415138084	484565.42120062496	484565.429162334	484571.42120062496	484571.429197084	6				40	606.52	-0.6	-0.4999		3		1	6	0	0				0	16
484560.071200625	484563.071200625	5.35	5.343937458994333	484571.421184916	484565.42120062496	484565.415138084	484565.42120062496	484565.429162334	484571.42120062496	484571.429197084	6				40	603.55	-0.6	-0.4999		3		1	6	0	0				0	16
484560.071200625	484563.821200625	5.35	5.343937458994333	484571.421184916	484565.42120062496	484565.415138084	484565.42120062496	484565.429162334	484571.42120062496	484571.429197084	6				40	610.52	-0.6	-0.4999		3		1	6	0	0				0	16
484560.071200625	484564.571200625	5.35	5.343937458994333	484571.421184916	484565.42120062496	484565.415138084	484565.42120062496	484565.429162334	484571.42120062496	484571.429197084	6				40	668.76	-0.6	-0.4999		3		1	6	1	0				0	16
484560.071200625	484565.321200625	5.35	5.343937458994333	484571.421184916	484565.42120062496	484565.415138084	484565.42120062496	484565.429162334	484571.42120062496	484571.429197084	6				40	611.01	-0.6	-0.4999		3		1	6	0	0				0	16
484571.433059916	484571.433059916	5.35	5.348851375980303	484582.783045791	484576.783059916	484576.781911292	484576.783059916	484576.795857084	484582.783059916	484582.795832125	6				40	610.33	-0.6	-0.4999		3		1	5	0	0				0	17
484571.433059916	484572.183059916	5.35	5.348851375980303	484582.783045791	484576.783059916	484576.781911292	484576.783059916	484576.795857084	484582.783059916	484582.795832125	6				40	613.41	-0.6	-0.4999		3		1	5	0	0				0	17
484571.433059916	484572.933059916	5.35	5.348851375980303	484582.783045791	484576.783059916	484576.781911292	484576.783059916	484576.795857084	484582.783059916	484582.795832125	6				40	612.1	-0.6	-0.4999		3		1	5	0	0				0	17
484571.433059916	484573.683059916	5.35	5.348851375980303	484582.783045791	484576.783059916	484576.781911292	484576.783059916	484576.795857084	484582.783059916	484582.795832125	6				40	616.22	-0.6	-0.4999		3		1	5	0	0				0	17
484571.433059916	484574.433059916	5.35	5.348851375980303	484582.783045791	484576.783059916	484576.781911292	484576.783059916	484576.795857084	484582.783059916	484582.795832125	6				40	621.17	-0.6	-0.4999		3		1	5	0	0				0	17
484571.433059916	484575.183059916	5.35	5.348851375980303	484582.783045791	484576.783059916	484576.781911292	484576.783059916	484576.795857084	484582.783059916	484582.795832125	6				40	659.62	-0.6	-0.4999		3		1	5	1	0				0	17
484571.433059916	484575.933059916	5.35	5.348851375980303	484582.783045791	484576.783059916	484576.781911292	484576.783059916	484576.795857084	484582.783059916	484582.795832125	6				40	622.46	-0.6	-0.4999		3		1	5	0	0				0	17
484571.433059916	484576.683059916	5.35	5.348851375980303	484582.783045791	484576.783059916	484576.781911292	484576.783059916	484576.795857084	484582.783059916	484582.795832125	6				40	621.69	-0.6	-0.4999		3		1	5	0	0				0	17
484582.79992075	484582.79992075	5.35	5.348094291985035	484594.149907083	484588.14992075	484588.148015042	484588.14992075	484588.162457084	484594.14992075	484594.162339209	6				40	622.68	-0.6	-0.4999		3		1	6	0	0				0	18
484582.79992075	484583.54992075	5.35	5.348094291985035	484594.149907083	484588.14992075	484588.148015042	484588.14992075	484588.162457084	484594.14992075	484594.162339209	6				40	620.03	-0.6	-0.4999		3		1	6	0	0				0	18
484582.79992075	484584.29992075	5.35	5.348094291985035	484594.149907083	484588.14992075	484588.148015042	484588.14992075	484588.162457084	484594.14992075	484594.162339209	6				40	621.32	-0.6	-0.4999		3		1	6	0	0				0	18
484582.79992075	484585.04992075	5.35	5.348094291985035	484594.149907083	484588.14992075	484588.148015042	484588.14992075	484588.162457084	484594.14992075	484594.162339209	6				40	619.97	-0.6	-0.4999		3		1	6	0	0				0	18
484582.79992075	484585.79992075	5.35	5.348094291985035	484594.149907083	484588.14992075	484588.148015042	484588.14992075	484588.162457084	484594.14992075	484594.162339209	6				40	623.9	-0.6	-0.4999		3		1	6	0	0				0	18
484582.79992075	484586.54992075	5.35	5.348094291985035	484594.149907083	484588.14992075	484588.148015042	484588.14992075	484588.162457084	484594.14992075	484594.162339209	6				40	625.87	-0.6	-0.4999		3		1	6	0	0				0	18
484582.79992075	484587.29992075	5.35	5.348094291985035	484594.149907083	484588.14992075	484588.148015042	484588.14992075	484588.162457084	484594.14992075	484594.162339209	6				40	650.14	-0.6	-0.4999		3		1	6	1	0				0	18
484582.79992075	484588.04992075	5.35	5.348094291985035	484594.149907083	484588.14992075	484588.148015042	484588.14992075	484588.162457084	484594.14992075	484594.162339209	6				40	633.08	-0.6	-0.4999		3		1	6	0	0				0	18
484598.166776958	484598.166776958	5.35	5.3480262090452015	484609.516763916	484603.51677695796	484603.514803167	484603.51677695796	484603.52917725	484609.51677695796	484609.52901075	6				40	633.57	-0.6	-0.4999		3		0	2	0	1				0	19
484598.166776958	484598.916776958	5.35	5.3480262090452015	484609.516763916	484603.51677695796	484603.514803167	484603.51677695796	484603.52917725	484609.51677695796	484609.52901075	6				40	631.57	-0.6	-0.4999		3		0	2	0	1				0	19
484598.166776958	484599.666776958	5.35	5.3480262090452015	484609.516763916	484603.51677695796	484603.514803167	484603.51677695796	484603.52917725	484609.51677695796	484609.52901075	6				40	649.89	-0.6	-0.4999		3		0	2	1	1				0	19
484598.166776958	484600.416776958	5.35	5.3480262090452015	484609.516763916	484603.51677695796	484603.514803167	484603.51677695796	484603.52917725	484609.51677695796	484609.52901075	6				40	633.84	-0.6	-0.4999		3		0	2	0	1				0	19
484598.166776958	484601.166776958	5.35	5.3480262090452015	484609.516763916	484603.51677695796	484603.514803167	484603.51677695796	484603.52917725	484609.51677695796	484609.52901075	6				40	633.71	-0.6	-0.4999		3		0	2	0	1				0	19
484598.166776958	484601.916776958	5.35	5.3480262090452015	484609.516763916	484603.51677695796	484603.514803167	484603.51677695796	484603.52917725	484609.51677695796	484609.52901075	6				40	630.79	-0.6	-0.4999		3		0	2	0	1				0	19
484598.166776958	484602.666776958	5.35	5.3480262090452015	484609.516763916	484603.51677695796	484603.514803167	484603.51677695796	484603.52917725	484609.51677695796	484609.52901075	6				40	631.32	-0.6	-0.4999		3		0	2	0	1				0	19
484598.166776958	484603.416776958	5.35	5.3480262090452015	484609.516763916	484603.51677695796	484603.514803167	484603.51677695796	484603.52917725	484609.51677695796	484609.52901075	6				40	627.95	-0.6	-0.4999		3		0	2	0	1				0	19
484609.533013875	484609.533013875	5.35	5.348722999973688	484620.883000333	484614.883013875	484614.881736875	484614.883013875	484614.895654709	484620.883013875	484620.895630709	6				40	627.21	-0.6	-0.4999		3		0	2	0	0				0	20
484609.533013875	484610.283013875	5.35	5.348722999973688	484620.883000333	484614.883013875	484614.881736875	484614.883013875	484614.895654709	484620.883013875	484620.895630709	6				40	631.52	-0.6	-0.4999		3		0	2	0	0				0	20
484609.533013875	484611.033013875	5.35	5.348722999973688	484620.883000333	484614.883013875	484614.881736875	484614.883013875	484614.895654709	484620.883013875	484620.895630709	6				40	639.26	-0.6	-0.4999		3		0	2	1	0				0	20
484609.533013875	484611.783013875	5.35	5.348722999973688	484620.883000333	484614.883013875	484614.881736875	484614.883013875	484614.895654709	484620.883013875	484620.895630709	6				40	616.54	-0.6	-0.4999		3		0	2	0	0				0	20
484609.533013875	484612.533013875	5.35	5.348722999973688	484620.883000333	484614.883013875	484614.881736875	484614.883013875	484614.895654709	484620.883013875	484620.895630709	6				40	619.61	-0.6	-0.4999		3		0	2	0	0				0	20
484609.533013875	484613.283013875	5.35	5.348722999973688	484620.883000333	484614.883013875	484614.881736875	484614.883013875	484614.895654709	484620.883013875	484620.895630709	6				40	622.34	-0.6	-0.4999		3		0	2	0	0				0	20
484609.533013875	484614.033013875	5.35	5.348722999973688	484620.883000333	484614.883013875	484614.881736875	484614.883013875	484614.895654709	484620.883013875	484620.895630709	6				40	623.22	-0.6	-0.4999		3		0	2	0	0				0	20
484609.533013875	484614.783013875	5.35	5.348722999973688	484620.883000333	484614.883013875	484614.881736875	484614.883013875	484614.895654709	484620.883013875	484620.895630709	6				40	619.62	-0.6	-0.4999		3		0	2	0	0				0	20
484620.899562791	484620.899562791	5.35	5.3487395840347745	484632.249550958	484626.24956279097	484626.248302375	484626.24956279097	484626.262392375	484632.24956279097	484632.26239	6				40	620.11	-0.6	-0.4999		3		0	2	0	0				0	21
484620.899562791	484621.649562791	5.35	5.3487395840347745	484632.249550958	484626.24956279097	484626.248302375	484626.24956279097	484626.262392375	484632.24956279097	484632.26239	6				40	623.04	-0.6	-0.4999		3		0	2	0	0				0	21
484620.899562791	484622.399562791	5.35	5.3487395840347745	484632.249550958	484626.24956279097	484626.248302375	484626.24956279097	484626.262392375	484632.24956279097	484632.26239	6				40	644.37	-0.6	-0.4999		3		0	2	1	0				0	21
484620.899562791	484623.149562791	5.35	5.3487395840347745	484632.249550958	484626.24956279097	484626.248302375	484626.24956279097	484626.262392375	484632.24956279097	484632.26239	6				40	629.72	-0.6	-0.4999		3		0	2	0	0				0	21
484620.899562791	484623.899562791	5.35	5.3487395840347745	484632.249550958	484626.24956279097	484626.248302375	484626.24956279097	484626.262392375	484632.24956279097	484632.26239	6				40	629.53	-0.6	-0.4999		3		0	2	0	0				0	21
484620.899562791	484624.649562791	5.35	5.3487395840347745	484632.249550958	484626.24956279097	484626.248302375	484626.24956279097	484626.262392375	484632.24956279097	484632.26239	6				40	626.49	-0.6	-0.4999		3		0	2	0	0				0	21
484620.899562791	484625.399562791	5.35	5.3487395840347745	484632.249550958	484626.24956279097	484626.248302375	484626.24956279097	484626.262392375	484632.24956279097	484632.26239	6				40	622.75	-0.6	-0.4999		3		0	2	0	0				0	21
484620.899562791	484626.149562791	5.35	5.3487395840347745	484632.249550958	484626.24956279097	484626.248302375	484626.24956279097	484626.262392375	484632.24956279097	484632.26239	6				40	626.76	-0.6	-0.4999		3		0	2	0	0				0	21
484632.266425958	484632.266425958	5.35	5.348762250971049	484643.616414208	484637.616425958	484637.615188209	484637.616425958	484637.628807375	484643.616425958	484643.628900917	6				40	624.35	-0.6	-0.4999		3		0	3	0	0				0	22
484632.266425958	484633.016425958	5.35	5.348762250971049	484643.616414208	484637.616425958	484637.615188209	484637.616425958	484637.628807375	484643.616425958	484643.628900917	6				40	619.56	-0.6	-0.4999		3		0	3	0	0				0	22
484632.266425958	484633.766425958	5.35	5.348762250971049	484643.616414208	484637.616425958	484637.615188209	484637.616425958	484637.628807375	484643.616425958	484643.628900917	6				40	624.43	-0.6	-0.4999		3		0	3	0	0				0	22
484632.266425958	484634.516425958	5.35	5.348762250971049	484643.616414208	484637.616425958	484637.615188209	484637.616425958	484637.628807375	484643.616425958	484643.628900917	6				40	666.58	-0.6	-0.4999		3		0	3	1	0				0	22
484632.266425958	484635.266425958	5.35	5.348762250971049	484643.616414208	484637.616425958	484637.615188209	484637.616425958	484637.628807375	484643.616425958	484643.628900917	6				40	627.25	-0.6	-0.4999		3		0	3	0	0				0	22
484632.266425958	484636.016425958	5.35	5.348762250971049	484643.616414208	484637.616425958	484637.615188209	484637.616425958	484637.628807375	484643.616425958	484643.628900917	6				40	624.33	-0.6	-0.4999		3		0	3	0	0				0	22
484632.266425958	484636.766425958	5.35	5.348762250971049	484643.616414208	484637.616425958	484637.615188209	484637.616425958	484637.628807375	484643.616425958	484643.628900917	6				40	626.8	-0.6	-0.4999		3		0	3	0	0				0	22
484632.266425958	484637.516425958	5.35	5.348762250971049	484643.616414208	484637.616425958	484637.615188209	484637.616425958	484637.628807375	484643.616425958	484643.628900917	6				40	629.16	-0.6	-0.4999		3		0	3	0	0				0	22
484643.632976708	484643.632976708	5.35	5.348479125997983	484654.982965208	484648.982976708	484648.981455834	484648.982976708	484648.99571525	484654.982976708	484654.995353167	6				40	629.05	-0.6	-0.4999		3		0	4	0	0				0	23
484643.632976708	484644.382976708	5.35	5.348479125997983	484654.982965208	484648.982976708	484648.981455834	484648.982976708	484648.99571525	484654.982976708	484654.995353167	6				40	626.06	-0.6	-0.4999		3		0	4	0	0				0	23
484643.632976708	484645.132976708	5.35	5.348479125997983	484654.982965208	484648.982976708	484648.981455834	484648.982976708	484648.99571525	484654.982976708	484654.995353167	6				40	629.79	-0.6	-0.4999		3		0	4	0	0				0	23
484643.632976708	484645.882976708	5.35	5.348479125997983	484654.982965208	484648.982976708	484648.981455834	484648.982976708	484648.99571525	484654.982976708	484654.995353167	6				40	632.89	-0.6	-0.4999		3		0	4	0	0				0	23
484643.632976708	484646.632976708	5.35	5.348479125997983	484654.982965208	484648.982976708	484648.981455834	484648.982976708	484648.99571525	484654.982976708	484654.995353167	6				40	657.69	-0.6	-0.4999		3		0	4	1	0				0	23
484643.632976708	484647.382976708	5.35	5.348479125997983	484654.982965208	484648.982976708	484648.981455834	484648.982976708	484648.99571525	484654.982976708	484654.995353167	6				40	625.81	-0.6	-0.4999		3		0	4	0	0				0	23
484643.632976708	484648.132976708	5.35	5.348479125997983	484654.982965208	484648.982976708	484648.981455834	484648.982976708	484648.99571525	484654.982976708	484654.995353167	6				40	621.03	-0.6	-0.4999		3		0	4	0	0				0	23
484643.632976708	484648.882976708	5.35	5.348479125997983	484654.982965208	484648.982976708	484648.981455834	484648.982976708	484648.99571525	484654.982976708	484654.995353167	6				40	623.63	-0.6	-0.4999		3		0	4	0	0				0	23
484654.999527708	484654.999527708	5.35	5.34909716702532	484666.34951641597	484660.34952770796	484660.348624875	484660.34952770796	484660.362231667	484666.34952770796	484666.36228725	6				40	623.11	-0.6	-0.4999		3		0	4	0	0				0	24
484654.999527708	484655.749527708	5.35	5.34909716702532	484666.34951641597	484660.34952770796	484660.348624875	484660.34952770796	484660.362231667	484666.34952770796	484666.36228725	6				40	633.41	-0.6	-0.4999		3		0	4	0	0				0	24
484654.999527708	484656.499527708	5.35	5.34909716702532	484666.34951641597	484660.34952770796	484660.348624875	484660.34952770796	484660.362231667	484666.34952770796	484666.36228725	6				40	638.92	-0.6	-0.4999		3		0	4	0	0				0	24
484654.999527708	484657.249527708	5.35	5.34909716702532	484666.34951641597	484660.34952770796	484660.348624875	484660.34952770796	484660.362231667	484666.34952770796	484666.36228725	6				40	635.73	-0.6	-0.4999		3		0	4	0	0				0	24
484654.999527708	484657.999527708	5.35	5.34909716702532	484666.34951641597	484660.34952770796	484660.348624875	484660.34952770796	484660.362231667	484666.34952770796	484666.36228725	6				40	646.89	-0.6	-0.4999		3		0	4	1	0				0	24
484654.999527708	484658.749527708	5.35	5.34909716702532	484666.34951641597	484660.34952770796	484660.348624875	484660.34952770796	484660.362231667	484666.34952770796	484666.36228725	6				40	639.92	-0.6	-0.4999		3		0	4	0	0				0	24
484654.999527708	484659.499527708	5.35	5.34909716702532	484666.34951641597	484660.34952770796	484660.348624875	484660.34952770796	484660.362231667	484666.34952770796	484666.36228725	6				40	638.31	-0.6	-0.4999		3		0	4	0	0				0	24
484654.999527708	484660.249527708	5.35	5.34909716702532	484666.34951641597	484660.34952770796	484660.348624875	484660.34952770796	484660.362231667	484666.34952770796	484666.36228725	6				40	642.51	-0.6	-0.4999		3		0	4	0	0				0	24
484666.366391375	484666.366391375	5.35	5.348620791977737	484677.716381125	484671.716391375	484671.715012167	484671.716391375	484671.729050875	484677.716391375	484677.729006209	6				40	640.62	-0.6	-0.4999		3		0	2	0	0				0	25
484666.366391375	484667.116391375	5.35	5.348620791977737	484677.716381125	484671.716391375	484671.715012167	484671.716391375	484671.729050875	484677.716391375	484677.729006209	6				40	639.29	-0.6	-0.4999		3		0	2	0	0				0	25
484666.366391375	484667.866391375	5.35	5.348620791977737	484677.716381125	484671.716391375	484671.715012167	484671.716391375	484671.729050875	484677.716391375	484677.729006209	6				40	651.39	-0.6	-0.4999		3		0	2	1	0				0	25
484666.366391375	484668.616391375	5.35	5.348620791977737	484677.716381125	484671.716391375	484671.715012167	484671.716391375	484671.729050875	484677.716391375	484677.729006209	6				40	641.66	-0.6	-0.4999		3		0	2	0	0				0	25
484666.366391375	484669.366391375	5.35	5.348620791977737	484677.716381125	484671.716391375	484671.715012167	484671.716391375	484671.729050875	484677.716391375	484677.729006209	6				40	640.16	-0.6	-0.4999		3		0	2	0	0				0	25
484666.366391375	484670.116391375	5.35	5.348620791977737	484677.716381125	484671.716391375	484671.715012167	484671.716391375	484671.729050875	484677.716391375	484677.729006209	6				40	640.54	-0.6	-0.4999		3		0	2	0	0				0	25
484666.366391375	484670.866391375	5.35	5.348620791977737	484677.716381125	484671.716391375	484671.715012167	484671.716391375	484671.729050875	484677.716391375	484677.729006209	6				40	636.04	-0.6	-0.4999		3		0	2	0	0				0	25
484666.366391375	484671.616391375	5.35	5.348620791977737	484677.716381125	484671.716391375	484671.715012167	484671.716391375	484671.729050875	484677.716391375	484677.729006209	6				40	640.02	-0.6	-0.4999		3		0	2	0	0				0	25
484677.732943625	484677.732943625	5.35	5.348802791966591	484689.082933625	484683.082943625	484683.081746417	484683.082943625	484683.095681459	484689.082943625	484689.09567	6				40	638.98	-0.6	-0.4999		3		0	3	0	0				0	26
484677.732943625	484678.482943625	5.35	5.348802791966591	484689.082933625	484683.082943625	484683.081746417	484683.082943625	484683.095681459	484689.082943625	484689.09567	6				40	632.62	-0.6	-0.4999		3		0	3	0	0				0	26
484677.732943625	484679.232943625	5.35	5.348802791966591	484689.082933625	484683.082943625	484683.081746417	484683.082943625	484683.095681459	484689.082943625	484689.09567	6				40	628.16	-0.6	-0.4999		3		0	3	0	0				0	26
484677.732943625	484679.982943625	5.35	5.348802791966591	484689.082933625	484683.082943625	484683.081746417	484683.082943625	484683.095681459	484689.082943625	484689.09567	6				40	670.41	-0.6	-0.4999		3		0	3	1	0				0	26
484677.732943625	484680.732943625	5.35	5.348802791966591	484689.082933625	484683.082943625	484683.081746417	484683.082943625	484683.095681459	484689.082943625	484689.09567	6				40	625.88	-0.6	-0.4999		3		0	3	0	0				0	26
484677.732943625	484681.482943625	5.35	5.348802791966591	484689.082933625	484683.082943625	484683.081746417	484683.082943625	484683.095681459	484689.082943625	484689.09567	6				40	626.15	-0.6	-0.4999		3		0	3	0	0				0	26
484677.732943625	484682.232943625	5.35	5.348802791966591	484689.082933625	484683.082943625	484683.081746417	484683.082943625	484683.095681459	484689.082943625	484689.09567	6				40	624.87	-0.6	-0.4999		3		0	3	0	0				0	26
484677.732943625	484682.982943625	5.35	5.348802791966591	484689.082933625	484683.082943625	484683.081746417	484683.082943625	484683.095681459	484689.082943625	484689.09567	6				40	627.39	-0.6	-0.4999		3		0	3	0	0				0	26
484689.099808583	484689.099808583	5.35	5.34860883402871	484700.44979962497	484694.44980858295	484694.448417417	484694.44980858295	484694.46216525	484700.44980858295	484700.46227475	6				40	625.92	-0.6	-0.4999		3		0	2	0	0				0	27
484689.099808583	484689.849808583	5.35	5.34860883402871	484700.44979962497	484694.44980858295	484694.448417417	484694.44980858295	484694.46216525	484700.44980858295	484700.46227475	6				40	627.34	-0.6	-0.4999		3		0	2	0	0				0	27
484689.099808583	484690.599808583	5.35	5.34860883402871	484700.44979962497	484694.44980858295	484694.448417417	484694.44980858295	484694.46216525	484700.44980858295	484700.46227475	6				40	677.59	-0.6	-0.4999		3		0	2	1	0				0	27
484689.099808583	484691.349808583	5.35	5.34860883402871	484700.44979962497	484694.44980858295	484694.448417417	484694.44980858295	484694.46216525	484700.44980858295	484700.46227475	6				40	620.75	-0.6	-0.4999		3		0	2	0	0				0	27
484689.099808583	484692.099808583	5.35	5.34860883402871	484700.44979962497	484694.44980858295	484694.448417417	484694.44980858295	484694.46216525	484700.44980858295	484700.46227475	6				40	621.33	-0.6	-0.4999		3		0	2	0	0				0	27
484689.099808583	484692.849808583	5.35	5.34860883402871	484700.44979962497	484694.44980858295	484694.448417417	484694.44980858295	484694.46216525	484700.44980858295	484700.46227475	6				40	619.73	-0.6	-0.4999		3		0	2	0	0				0	27
484689.099808583	484693.599808583	5.35	5.34860883402871	484700.44979962497	484694.44980858295	484694.448417417	484694.44980858295	484694.46216525	484700.44980858295	484700.46227475	6				40	623.85	-0.6	-0.4999		3		0	2	0	0				0	27
484689.099808583	484694.349808583	5.35	5.34860883402871	484700.44979962497	484694.44980858295	484694.448417417	484694.44980858295	484694.46216525	484700.44980858295	484700.46227475	6				40	620.79	-0.6	-0.4999		3		0	2	0	0				0	27
484700.466362083	484700.466362083	5.35	5.348585167026613	484711.816353958	484705.81636208296	484705.81494725	484705.81636208296	484705.82888575	484711.81636208296	484711.829514042	6				40	623.58	-0.6	-0.4999		3		0	2	0	0				0	28
484700.466362083	484701.216362083	5.35	5.348585167026613	484711.816353958	484705.81636208296	484705.81494725	484705.81636208296	484705.82888575	484711.81636208296	484711.829514042	6				40	621.81	-0.6	-0.4999		3		0	2	0	0				0	28
484700.466362083	484701.966362083	5.35	5.348585167026613	484711.816353958	484705.81636208296	484705.81494725	484705.81636208296	484705.82888575	484711.81636208296	484711.829514042	6				40	695.23	-0.6	-0.4999		3		0	2	1	0				0	28
484700.466362083	484702.716362083	5.35	5.348585167026613	484711.816353958	484705.81636208296	484705.81494725	484705.81636208296	484705.82888575	484711.81636208296	484711.829514042	6				40	619.89	-0.6	-0.4999		3		0	2	0	0				0	28
484700.466362083	484703.466362083	5.35	5.348585167026613	484711.816353958	484705.81636208296	484705.81494725	484705.81636208296	484705.82888575	484711.81636208296	484711.829514042	6				40	617.1	-0.6	-0.4999		3		0	2	0	0				0	28
484700.466362083	484704.216362083	5.35	5.348585167026613	484711.816353958	484705.81636208296	484705.81494725	484705.81636208296	484705.82888575	484711.81636208296	484711.829514042	6				40	620.73	-0.6	-0.4999		3		0	2	0	0				0	28
484700.466362083	484704.966362083	5.35	5.348585167026613	484711.816353958	484705.81636208296	484705.81494725	484705.81636208296	484705.82888575	484711.81636208296	484711.829514042	6				40	617.02	-0.6	-0.4999		3		0	2	0	0				0	28
484700.466362083	484705.716362083	5.35	5.348585167026613	484711.816353958	484705.81636208296	484705.81494725	484705.81636208296	484705.82888575	484711.81636208296	484711.829514042	6				40	621.74	-0.6	-0.4999		3		0	2	0	0				0	28
484711.834478958	484711.834478958	5.35	5.347234876011498	484723.184473291	484717.18447895796	484717.181713834	484717.18447895796	484717.19558	484723.18447895796	484723.195624917	6				40	624.1	-0.6	-0.4999		3		0	3	0	0				0	29
484711.834478958	484712.584478958	5.35	5.347234876011498	484723.184473291	484717.18447895796	484717.181713834	484717.18447895796	484717.19558	484723.18447895796	484723.195624917	6				40	616.88	-0.6	-0.4999		3		0	3	0	0				0	29
484711.834478958	484713.334478958	5.35	5.347234876011498	484723.184473291	484717.18447895796	484717.181713834	484717.18447895796	484717.19558	484723.18447895796	484723.195624917	6				40	619.4	-0.6	-0.4999		3		0	3	0	0				0	29
484711.834478958	484714.084478958	5.35	5.347234876011498	484723.184473291	484717.18447895796	484717.181713834	484717.18447895796	484717.19558	484723.18447895796	484723.195624917	6				40	685.23	-0.6	-0.4999		3		0	3	1	0				0	29
484711.834478958	484714.834478958	5.35	5.347234876011498	484723.184473291	484717.18447895796	484717.181713834	484717.18447895796	484717.19558	484723.18447895796	484723.195624917	6				40	618.03	-0.6	-0.4999		3		0	3	0	0				0	29
484711.834478958	484715.584478958	5.35	5.347234876011498	484723.184473291	484717.18447895796	484717.181713834	484717.18447895796	484717.19558	484723.18447895796	484723.195624917	6				40	611.92	-0.6	-0.4999		3		0	3	0	0				0	29
484711.834478958	484716.334478958	5.35	5.347234876011498	484723.184473291	484717.18447895796	484717.181713834	484717.18447895796	484717.19558	484723.18447895796	484723.195624917	6				40	609.41	-0.6	-0.4999		3		0	3	0	0				0	29
484711.834478958	484717.084478958	5.35	5.347234876011498	484723.184473291	484717.18447895796	484717.181713834	484717.18447895796	484717.19558	484723.18447895796	484723.195624917	6				40	605.64	-0.6	-0.4999		3		0	3	0	0				0	29
484723.19978575	484723.19978575	5.35	5.348435249994509	484734.549779083	484728.54978575	484728.548221	484728.54978575	484728.562227959	484734.54978575	484734.561302209	6				40	603.86	-0.6	-0.4999		3		0	3	0	0				0	30
484723.19978575	484723.94978575	5.35	5.348435249994509	484734.549779083	484728.54978575	484728.548221	484728.54978575	484728.562227959	484734.54978575	484734.561302209	6				40	603.06	-0.6	-0.4999		3		0	3	0	0				0	30
484723.19978575	484724.69978575	5.35	5.348435249994509	484734.549779083	484728.54978575	484728.548221	484728.54978575	484728.562227959	484734.54978575	484734.561302209	6				40	601.4	-0.6	-0.4999		3		0	3	0	0				0	30
484723.19978575	484725.44978575	5.35	5.348435249994509	484734.549779083	484728.54978575	484728.548221	484728.54978575	484728.562227959	484734.54978575	484734.561302209	6				40	672.1	-0.6	-0.4999		3		0	3	1	0				0	30
484723.19978575	484726.19978575	5.35	5.348435249994509	484734.549779083	484728.54978575	484728.548221	484728.54978575	484728.562227959	484734.54978575	484734.561302209	6				40	606.76	-0.6	-0.4999		3		0	3	0	0				0	30
484723.19978575	484726.94978575	5.35	5.348435249994509	484734.549779083	484728.54978575	484728.548221	484728.54978575	484728.562227959	484734.54978575	484734.561302209	6				40	607.7	-0.6	-0.4999		3		0	3	0	0				0	30
484723.19978575	484727.69978575	5.35	5.348435249994509	484734.549779083	484728.54978575	484728.548221	484728.54978575	484728.562227959	484734.54978575	484734.561302209	6				40	604.8	-0.6	-0.4999		3		0	3	0	0				0	30
484723.19978575	484728.44978575	5.35	5.348435249994509	484734.549779083	484728.54978575	484728.548221	484728.54978575	484728.562227959	484734.54978575	484734.561302209	6				40	608.21	-0.6	-0.4999		3		0	3	0	0				0	30
484734.565404083	484734.565404083	5.35	5.349095751007553	484745.915396416	484739.915404083	484739.914499834	484739.915404083	484739.928865625	484745.915404083	484745.928810709	6				40	601.39	-0.6	-0.4999		3		0	4	0	0				0	31
484734.565404083	484735.315404083	5.35	5.349095751007553	484745.915396416	484739.915404083	484739.914499834	484739.915404083	484739.928865625	484745.915404083	484745.928810709	6				40	606.64	-0.6	-0.4999		3		0	4	0	0				0	31
484734.565404083	484736.065404083	5.35	5.349095751007553	484745.915396416	484739.915404083	484739.914499834	484739.915404083	484739.928865625	484745.915404083	484745.928810709	6				40	604.04	-0.6	-0.4999		3		0	4	0	0				0	31
484734.565404083	484736.815404083	5.35	5.349095751007553	484745.915396416	484739.915404083	484739.914499834	484739.915404083	484739.928865625	484745.915404083	484745.928810709	6				40	607.88	-0.6	-0.4999		3		0	4	0	0				0	31
484734.565404083	484737.565404083	5.35	5.349095751007553	484745.915396416	484739.915404083	484739.914499834	484739.915404083	484739.928865625	484745.915404083	484745.928810709	6				40	669.67	-0.6	-0.4999		3		0	4	1	0				0	31
484734.565404083	484738.315404083	5.35	5.349095751007553	484745.915396416	484739.915404083	484739.914499834	484739.915404083	484739.928865625	484745.915404083	484745.928810709	6				40	615.79	-0.6	-0.4999		3		0	4	0	0				0	31
484734.565404083	484739.065404083	5.35	5.349095751007553	484745.915396416	484739.915404083	484739.914499834	484739.915404083	484739.928865625	484745.915404083	484745.928810709	6				40	606.65	-0.6	-0.4999		3		0	4	0	0				0	31
484734.565404083	484739.815404083	5.35	5.349095751007553	484745.915396416	484739.915404083	484739.914499834	484739.915404083	484739.928865625	484745.915404083	484745.928810709	6				40	610.29	-0.6	-0.4999		3		0	4	0	0				0	31
484745.932896416	484745.932896416	5.35	5.347961793013383	484757.282889958	484751.28289641597	484751.280858209	484751.28289641597	484751.295631792	484757.28289641597	484757.29532675	6				40	607.41	-0.6	-0.4999		3		0	2	0	0				0	32
484745.932896416	484746.682896416	5.35	5.347961793013383	484757.282889958	484751.28289641597	484751.280858209	484751.28289641597	484751.295631792	484757.28289641597	484757.29532675	6				40	610.98	-0.6	-0.4999		3		0	2	0	0				0	32
484745.932896416	484747.432896416	5.35	5.347961793013383	484757.282889958	484751.28289641597	484751.280858209	484751.28289641597	484751.295631792	484757.28289641597	484757.29532675	6				40	651.77	-0.6	-0.4999		3		0	2	1	0				0	32
484745.932896416	484748.182896416	5.35	5.347961793013383	484757.282889958	484751.28289641597	484751.280858209	484751.28289641597	484751.295631792	484757.28289641597	484757.29532675	6				40	610.24	-0.6	-0.4999		3		0	2	0	0				0	32
484745.932896416	484748.932896416	5.35	5.347961793013383	484757.282889958	484751.28289641597	484751.280858209	484751.28289641597	484751.295631792	484757.28289641597	484757.29532675	6				40	608.36	-0.6	-0.4999		3		0	2	0	0				0	32
484745.932896416	484749.682896416	5.35	5.347961793013383	484757.282889958	484751.28289641597	484751.280858209	484751.28289641597	484751.295631792	484757.28289641597	484757.29532675	6				40	608.75	-0.6	-0.4999		3		0	2	0	0				0	32
484745.932896416	484750.432896416	5.35	5.347961793013383	484757.282889958	484751.28289641597	484751.280858209	484751.28289641597	484751.295631792	484757.28289641597	484757.29532675	6				40	612.22	-0.6	-0.4999		3		0	2	0	0				0	32
484745.932896416	484751.182896416	5.35	5.347961793013383	484757.282889958	484751.28289641597	484751.280858209	484751.28289641597	484751.295631792	484757.28289641597	484757.29532675	6				40	607.92	-0.6	-0.4999		3		0	2	0	0				0	32
484757.299452458	484757.299452458	5.35	5.34880429203622	484768.649445208	484762.64945245796	484762.64825675	484762.64945245796	484762.662206084	484768.64945245796	484768.6622035	6				40	610.28	-0.6	-0.4999		3		0	4	0	0				0	33
484757.299452458	484758.049452458	5.35	5.34880429203622	484768.649445208	484762.64945245796	484762.64825675	484762.64945245796	484762.662206084	484768.64945245796	484768.6622035	6				40	611.81	-0.6	-0.4999		3		0	4	0	0				0	33
484757.299452458	484758.799452458	5.35	5.34880429203622	484768.649445208	484762.64945245796	484762.64825675	484762.64945245796	484762.662206084	484768.64945245796	484768.6622035	6				40	605.4	-0.6	-0.4999		3		0	4	0	0				0	33
484757.299452458	484759.549452458	5.35	5.34880429203622	484768.649445208	484762.64945245796	484762.64825675	484762.64945245796	484762.662206084	484768.64945245796	484768.6622035	6				40	607.64	-0.6	-0.4999		3		0	4	0	0				0	33
484757.299452458	484760.299452458	5.35	5.34880429203622	484768.649445208	484762.64945245796	484762.64825675	484762.64945245796	484762.662206084	484768.64945245796	484768.6622035	6				40	648.81	-0.6	-0.4999		3		0	4	1	0				0	33
484757.299452458	484761.049452458	5.35	5.34880429203622	484768.649445208	484762.64945245796	484762.64825675	484762.64945245796	484762.662206084	484768.64945245796	484768.6622035	6				40	610.56	-0.6	-0.4999		3		0	4	0	0				0	33
484757.299452458	484761.799452458	5.35	5.34880429203622	484768.649445208	484762.64945245796	484762.64825675	484762.64945245796	484762.662206084	484768.64945245796	484768.6622035	6				40	607.61	-0.6	-0.4999		3		0	4	0	0				0	33
484757.299452458	484762.549452458	5.35	5.34880429203622	484768.649445208	484762.64945245796	484762.64825675	484762.64945245796	484762.662206084	484768.64945245796	484768.6622035	6				40	610.65	-0.6	-0.4999		3		0	4	0	0				0	33
484768.666320166	484768.666320166	5.35	5.348542375955731	484780.016313208	484774.016320166	484774.014862542	484774.016320166	484774.028881792	484780.016320166	484780.028771542	6				40	609.3	-0.6	-0.4999		4		2	0	0	0				0	34
484768.666320166	484769.416320166	5.35	5.348542375955731	484780.016313208	484774.016320166	484774.014862542	484774.016320166	484774.028881792	484780.016320166	484780.028771542	6				40	605.13	-0.6	-0.4999		4		2	0	0	0				0	34
484768.666320166	484770.166320166	5.35	5.348542375955731	484780.016313208	484774.016320166	484774.014862542	484774.016320166	484774.028881792	484780.016320166	484780.028771542	6				40	607.64	-0.6	-0.4999		4		2	0	0	0				0	34
484768.666320166	484770.916320166	5.35	5.348542375955731	484780.016313208	484774.016320166	484774.014862542	484774.016320166	484774.028881792	484780.016320166	484780.028771542	6				40	605.54	-0.6	-0.4999		4		2	0	0	0				0	34
484768.666320166	484771.666320166	5.35	5.348542375955731	484780.016313208	484774.016320166	484774.014862542	484774.016320166	484774.028881792	484780.016320166	484780.028771542	6				40	601.83	-0.6	-0.4999		4		2	0	0	0				0	34
484768.666320166	484772.416320166	5.35	5.348542375955731	484780.016313208	484774.016320166	484774.014862542	484774.016320166	484774.028881792	484780.016320166	484780.028771542	6				40	605.17	-0.6	-0.4999		4		2	0	0	0				0	34
484768.666320166	484773.166320166	5.35	5.348542375955731	484780.016313208	484774.016320166	484774.014862542	484774.016320166	484774.028881792	484780.016320166	484780.028771542	6				40	601.24	-0.6	-0.4999		4		2	0	0	0				0	34
484768.666320166	484773.916320166	5.35	5.348542375955731	484780.016313208	484774.016320166	484774.014862542	484774.016320166	484774.028881792	484780.016320166	484780.028771542	6				40	597.91	-0.6	-0.4999		4		2	0	0	0				0	34
484784.033186416	484784.033186416	5.35	5.348432250961196	484795.383181208	484789.383186416	484789.381618667	484789.383186416	484789.395470959	484795.383186416	484795.395561542	6				40	600.49	-0.6	-0.4999		3		1	4	0	1				0	35
484784.033186416	484784.783186416	5.35	5.348432250961196	484795.383181208	484789.383186416	484789.381618667	484789.383186416	484789.395470959	484795.383186416	484795.395561542	6				40	601.47	-0.6	-0.4999		3		1	4	0	1				0	35
484784.033186416	484785.533186416	5.35	5.348432250961196	484795.383181208	484789.383186416	484789.381618667	484789.383186416	484789.395470959	484795.383186416	484795.395561542	6				40	607.01	-0.6	-0.4999		3		1	4	0	1				0	35
484784.033186416	484786.283186416	5.35	5.348432250961196	484795.383181208	484789.383186416	484789.381618667	484789.383186416	484789.395470959	484795.383186416	484795.395561542	6				40	601.82	-0.6	-0.4999		3		1	4	0	1				0	35
484784.033186416	484787.033186416	5.35	5.348432250961196	484795.383181208	484789.383186416	484789.381618667	484789.383186416	484789.395470959	484795.383186416	484795.395561542	6				40	664.35	-0.6	-0.4999		3		1	4	1	1				0	35
484784.033186416	484787.783186416	5.35	5.348432250961196	484795.383181208	484789.383186416	484789.381618667	484789.383186416	484789.395470959	484795.383186416	484795.395561542	6				40	603.02	-0.6	-0.4999		3		1	4	0	1				0	35
484784.033186416	484788.533186416	5.35	5.348432250961196	484795.383181208	484789.383186416	484789.381618667	484789.383186416	484789.395470959	484795.383186416	484795.395561542	6				40	607.94	-0.6	-0.4999		3		1	4	0	1				0	35
484784.033186416	484789.283186416	5.35	5.348432250961196	484795.383181208	484789.383186416	484789.381618667	484789.383186416	484789.395470959	484795.383186416	484795.395561542	6				40	611.52	-0.6	-0.4999		3		1	4	0	1				0	35
484795.399743708	484795.399743708	5.35	5.348089708946645	484806.749738208	484800.749743708	484800.747833417	484800.749743708	484800.762198625	484806.749743708	484806.762277584	6				40	613.28	-0.6	-0.4999		3		1	5	0	0				0	36
484795.399743708	484796.149743708	5.35	5.348089708946645	484806.749738208	484800.749743708	484800.747833417	484800.749743708	484800.762198625	484806.749743708	484806.762277584	6				40	618.29	-0.6	-0.4999		3		1	5	0	0				0	36
484795.399743708	484796.899743708	5.35	5.348089708946645	484806.749738208	484800.749743708	484800.747833417	484800.749743708	484800.762198625	484806.749743708	484806.762277584	6				40	616.41	-0.6	-0.4999		3		1	5	0	0				0	36
484795.399743708	484797.649743708	5.35	5.348089708946645	484806.749738208	484800.749743708	484800.747833417	484800.749743708	484800.762198625	484806.749743708	484806.762277584	6				40	613.37	-0.6	-0.4999		3		1	5	0	0				0	36
484795.399743708	484798.399743708	5.35	5.348089708946645	484806.749738208	484800.749743708	484800.747833417	484800.749743708	484800.762198625	484806.749743708	484806.762277584	6				40	614.29	-0.6	-0.4999		3		1	5	0	0				0	36
484795.399743708	484799.149743708	5.35	5.348089708946645	484806.749738208	484800.749743708	484800.747833417	484800.749743708	484800.762198625	484806.749743708	484806.762277584	6				40	652.83	-0.6	-0.4999		3		1	5	1	0				0	36
484795.399743708	484799.899743708	5.35	5.348089708946645	484806.749738208	484800.749743708	484800.747833417	484800.749743708	484800.762198625	484806.749743708	484806.762277584	6				40	620.67	-0.6	-0.4999		3		1	5	0	0				0	36
484795.399743708	484800.649743708	5.35	5.348089708946645	484806.749738208	484800.749743708	484800.747833417	484800.749743708	484800.762198625	484806.749743708	484806.762277584	6				40	622.31	-0.6	-0.4999		3		1	5	0	0				0	36
484806.766300708	484806.766300708	5.35	5.349033708975185	484818.116296041	484812.116300708	484812.115334417	484812.116300708	484812.128887459	484818.116300708	484818.128874959	6				40	618.6	-0.6	-0.4999		3		1	6	0	0				0	37
484806.766300708	484807.516300708	5.35	5.349033708975185	484818.116296041	484812.116300708	484812.115334417	484812.116300708	484812.128887459	484818.116300708	484818.128874959	6				40	617.95	-0.6	-0.4999		3		1	6	0	0				0	37
484806.766300708	484808.266300708	5.35	5.349033708975185	484818.116296041	484812.116300708	484812.115334417	484812.116300708	484812.128887459	484818.116300708	484818.128874959	6				40	620.82	-0.6	-0.4999		3		1	6	0	0				0	37
484806.766300708	484809.016300708	5.35	5.349033708975185	484818.116296041	484812.116300708	484812.115334417	484812.116300708	484812.128887459	484818.116300708	484818.128874959	6				40	616.85	-0.6	-0.4999		3		1	6	0	0				0	37
484806.766300708	484809.766300708	5.35	5.349033708975185	484818.116296041	484812.116300708	484812.115334417	484812.116300708	484812.128887459	484818.116300708	484818.128874959	6				40	620.94	-0.6	-0.4999		3		1	6	0	0				0	37
484806.766300708	484810.516300708	5.35	5.349033708975185	484818.116296041	484812.116300708	484812.115334417	484812.116300708	484812.128887459	484818.116300708	484818.128874959	6				40	620.28	-0.6	-0.4999		3		1	6	0	0				0	37
484806.766300708	484811.266300708	5.35	5.349033708975185	484818.116296041	484812.116300708	484812.115334417	484812.116300708	484812.128887459	484818.116300708	484818.128874959	6				40	633.32	-0.6	-0.4999		3		1	6	1	0				0	37
484806.766300708	484812.016300708	5.35	5.349033708975185	484818.116296041	484812.116300708	484812.115334417	484812.116300708	484812.128887459	484818.116300708	484818.128874959	6				40	617.92	-0.6	-0.4999		3		1	6	0	0				0	37
484818.1328585	484818.1328585	5.35	5.34872120898217	484829.4828545	484823.4828585	484823.481579709	484823.4828585	484823.495583792	484829.4828585	484829.495659209	6				40	619.67	-0.6	-0.4999		3		1	4	0	0				0	38
484818.1328585	484818.8828585	5.35	5.34872120898217	484829.4828545	484823.4828585	484823.481579709	484823.4828585	484823.495583792	484829.4828585	484829.495659209	6				40	616.92	-0.6	-0.4999		3		1	4	0	0				0	38
484818.1328585	484819.6328585	5.35	5.34872120898217	484829.4828545	484823.4828585	484823.481579709	484823.4828585	484823.495583792	484829.4828585	484829.495659209	6				40	626.58	-0.6	-0.4999		3		1	4	0	0				0	38
484818.1328585	484820.3828585	5.35	5.34872120898217	484829.4828545	484823.4828585	484823.481579709	484823.4828585	484823.495583792	484829.4828585	484829.495659209	6				40	627.43	-0.6	-0.4999		3		1	4	0	0				0	38
484818.1328585	484821.1328585	5.35	5.34872120898217	484829.4828545	484823.4828585	484823.481579709	484823.4828585	484823.495583792	484829.4828585	484829.495659209	6				40	648.4	-0.6	-0.4999		3		1	4	1	0				0	38
484818.1328585	484821.8828585	5.35	5.34872120898217	484829.4828545	484823.4828585	484823.481579709	484823.4828585	484823.495583792	484829.4828585	484829.495659209	6				40	637.9	-0.6	-0.4999		3		1	4	0	0				0	38
484818.1328585	484822.6328585	5.35	5.34872120898217	484829.4828545	484823.4828585	484823.481579709	484823.4828585	484823.495583792	484829.4828585	484829.495659209	6				40	641.12	-0.6	-0.4999		3		1	4	0	0				0	38
484818.1328585	484823.3828585	5.35	5.34872120898217	484829.4828545	484823.4828585	484823.481579709	484823.4828585	484823.495583792	484829.4828585	484829.495659209	6				40	637.88	-0.6	-0.4999		3		1	4	0	0				0	38
484833.500040541	484833.500040541	5.35	5.3477855430101044	484844.850036791	484838.850040541	484838.847826084	484838.850040541	484838.862274292	484844.850040541	484844.862201167	6				40	636.72	-0.6	-0.4999		3		1	5	0	1				0	39
484833.500040541	484834.250040541	5.35	5.3477855430101044	484844.850036791	484838.850040541	484838.847826084	484838.850040541	484838.862274292	484844.850040541	484844.862201167	6				40	637.66	-0.6	-0.4999		3		1	5	0	1				0	39
484833.500040541	484835.000040541	5.35	5.3477855430101044	484844.850036791	484838.850040541	484838.847826084	484838.850040541	484838.862274292	484844.850040541	484844.862201167	6				40	633.6	-0.6	-0.4999		3		1	5	0	1				0	39
484833.500040541	484835.750040541	5.35	5.3477855430101044	484844.850036791	484838.850040541	484838.847826084	484838.850040541	484838.862274292	484844.850040541	484844.862201167	6				40	643.65	-0.6	-0.4999		3		1	5	0	1				0	39
484833.500040541	484836.500040541	5.35	5.3477855430101044	484844.850036791	484838.850040541	484838.847826084	484838.850040541	484838.862274292	484844.850040541	484844.862201167	6				40	644.46	-0.6	-0.4999		3		1	5	0	1				0	39
484833.500040541	484837.250040541	5.35	5.3477855430101044	484844.850036791	484838.850040541	484838.847826084	484838.850040541	484838.862274292	484844.850040541	484844.862201167	6				40	646.26	-0.6	-0.4999		3		1	5	1	1				0	39
484833.500040541	484838.000040541	5.35	5.3477855430101044	484844.850036791	484838.850040541	484838.847826084	484838.850040541	484838.862274292	484844.850040541	484844.862201167	6				40	637.13	-0.6	-0.4999		3		1	5	0	1				0	39
484833.500040541	484838.750040541	5.35	5.3477855430101044	484844.850036791	484838.850040541	484838.847826084	484838.850040541	484838.862274292	484844.850040541	484844.862201167	6				40	637.53	-0.6	-0.4999		3		1	5	0	1				0	39
484844.866286791	484844.866286791	5.35	5.348783584020566	484856.216281291	484850.21628679096	484850.215070375	484850.21628679096	484850.228756084	484856.21628679096	484856.229002625	6				40	629.72	-0.6	-0.4999		3		0	4	0	0				0	40
484844.866286791	484845.616286791	5.35	5.348783584020566	484856.216281291	484850.21628679096	484850.215070375	484850.21628679096	484850.228756084	484856.21628679096	484856.229002625	6				40	637.73	-0.6	-0.4999		3		0	4	0	0				0	40
484844.866286791	484846.366286791	5.35	5.348783584020566	484856.216281291	484850.21628679096	484850.215070375	484850.21628679096	484850.228756084	484856.21628679096	484856.229002625	6				40	638.91	-0.6	-0.4999		3		0	4	0	0				0	40
484844.866286791	484847.116286791	5.35	5.348783584020566	484856.216281291	484850.21628679096	484850.215070375	484850.21628679096	484850.228756084	484856.21628679096	484856.229002625	6				40	632.31	-0.6	-0.4999		3		0	4	0	0				0	40
484844.866286791	484847.866286791	5.35	5.348783584020566	484856.216281291	484850.21628679096	484850.215070375	484850.21628679096	484850.228756084	484856.21628679096	484856.229002625	6				40	635.46	-0.6	-0.4999		3		0	4	1	0				0	40
484844.866286791	484848.616286791	5.35	5.348783584020566	484856.216281291	484850.21628679096	484850.215070375	484850.21628679096	484850.228756084	484856.21628679096	484856.229002625	6				40	635.44	-0.6	-0.4999		3		0	4	0	0				0	40
484844.866286791	484849.366286791	5.35	5.348783584020566	484856.216281291	484850.21628679096	484850.215070375	484850.21628679096	484850.228756084	484856.21628679096	484856.229002625	6				40	634.33	-0.6	-0.4999		3		0	4	0	0				0	40
484844.866286791	484850.116286791	5.35	5.348783584020566	484856.216281291	484850.21628679096	484850.215070375	484850.21628679096	484850.228756084	484856.21628679096	484856.229002625	6				40	636.7	-0.6	-0.4999		3		0	4	0	0				0	40
484856.23315625	484856.23315625	5.35	5.348414917010814	484867.583151416	484861.58315624995	484861.581571167	484861.58315624995	484861.595581875	484867.58315624995	484867.595611709	6				40	632.21	-0.6	-0.4999		3		0	3	0	0				0	41
484856.23315625	484856.98315625	5.35	5.348414917010814	484867.583151416	484861.58315624995	484861.581571167	484861.58315624995	484861.595581875	484867.58315624995	484867.595611709	6				40	636.52	-0.6	-0.4999		3		0	3	0	0				0	41
484856.23315625	484857.73315625	5.35	5.348414917010814	484867.583151416	484861.58315624995	484861.581571167	484861.58315624995	484861.595581875	484867.58315624995	484867.595611709	6				40	628.1	-0.6	-0.4999		3		0	3	0	0				0	41
484856.23315625	484858.48315625	5.35	5.348414917010814	484867.583151416	484861.58315624995	484861.581571167	484861.58315624995	484861.595581875	484867.58315624995	484867.595611709	6				40	642.0	-0.6	-0.4999		3		0	3	1	0				0	41
484856.23315625	484859.23315625	5.35	5.348414917010814	484867.583151416	484861.58315624995	484861.581571167	484861.58315624995	484861.595581875	484867.58315624995	484867.595611709	6				40	624.89	-0.6	-0.4999		3		0	3	0	0				0	41
484856.23315625	484859.98315625	5.35	5.348414917010814	484867.583151416	484861.58315624995	484861.581571167	484861.58315624995	484861.595581875	484867.58315624995	484867.595611709	6				40	630.68	-0.6	-0.4999		3		0	3	0	0				0	41
484856.23315625	484860.73315625	5.35	5.348414917010814	484867.583151416	484861.58315624995	484861.581571167	484861.58315624995	484861.595581875	484867.58315624995	484867.595611709	6				40	635.89	-0.6	-0.4999		3		0	3	0	0				0	41
484856.23315625	484861.48315625	5.35	5.348414917010814	484867.583151416	484861.58315624995	484861.581571167	484861.58315624995	484861.595581875	484867.58315624995	484867.595611709	6				40	633.46	-0.6	-0.4999		3		0	3	0	0				0	41
484867.599713916	484867.599713916	5.35	5.348480917979032	484878.949710125	484872.949713916	484872.948194834	484872.949713916	484872.962201375	484878.949713916	484878.962120792	6				40	635.49	-0.6	-0.4999		3		0	4	0	0				0	42
484867.599713916	484868.349713916	5.35	5.348480917979032	484878.949710125	484872.949713916	484872.948194834	484872.949713916	484872.962201375	484878.949713916	484878.962120792	6				40	626.07	-0.6	-0.4999		3		0	4	0	0				0	42
484867.599713916	484869.099713916	5.35	5.348480917979032	484878.949710125	484872.949713916	484872.948194834	484872.949713916	484872.962201375	484878.949713916	484878.962120792	6				40	625.69	-0.6	-0.4999		3		0	4	0	0				0	42
484867.599713916	484869.849713916	5.35	5.348480917979032	484878.949710125	484872.949713916	484872.948194834	484872.949713916	484872.962201375	484878.949713916	484878.962120792	6				40	626.63	-0.6	-0.4999		3		0	4	0	0				0	42
484867.599713916	484870.599713916	5.35	5.348480917979032	484878.949710125	484872.949713916	484872.948194834	484872.949713916	484872.962201375	484878.949713916	484878.962120792	6				40	641.37	-0.6	-0.4999		3		0	4	1	0				0	42
484867.599713916	484871.349713916	5.35	5.348480917979032	484878.949710125	484872.949713916	484872.948194834	484872.949713916	484872.962201375	484878.949713916	484878.962120792	6				40	629.03	-0.6	-0.4999		3		0	4	0	0				0	42
484867.599713916	484872.099713916	5.35	5.348480917979032	484878.949710125	484872.949713916	484872.948194834	484872.949713916	484872.962201375	484878.949713916	484878.962120792	6				40	632.92	-0.6	-0.4999		3		0	4	0	0				0	42
484867.599713916	484872.849713916	5.35	5.348480917979032	484878.949710125	484872.949713916	484872.948194834	484872.949713916	484872.962201375	484878.949713916	484878.962120792	6				40	638.2	-0.6	-0.4999		3		0	4	0	0				0	42
484878.966272625	484878.966272625	5.35	5.348668624996208	484890.316269125	484884.316272625	484884.31494125	484884.316272625	484884.328779209	484890.316272625	484890.32875925	6				40	635.1	-0.6	-0.4999		3		0	2	0	0				0	43
484878.966272625	484879.716272625	5.35	5.348668624996208	484890.316269125	484884.316272625	484884.31494125	484884.316272625	484884.328779209	484890.316272625	484890.32875925	6				40	639.09	-0.6	-0.4999		3		0	2	0	0				0	43
484878.966272625	484880.466272625	5.35	5.348668624996208	484890.316269125	484884.316272625	484884.31494125	484884.316272625	484884.328779209	484890.316272625	484890.32875925	6				40	642.83	-0.6	-0.4999		3		0	2	1	0				0	43
484878.966272625	484881.216272625	5.35	5.348668624996208	484890.316269125	484884.316272625	484884.31494125	484884.316272625	484884.328779209	484890.316272625	484890.32875925	6				40	640.46	-0.6	-0.4999		3		0	2	0	0				0	43
484878.966272625	484881.966272625	5.35	5.348668624996208	484890.316269125	484884.316272625	484884.31494125	484884.316272625	484884.328779209	484890.316272625	484890.32875925	6				40	641.35	-0.6	-0.4999		3		0	2	0	0				0	43
484878.966272625	484882.716272625	5.35	5.348668624996208	484890.316269125	484884.316272625	484884.31494125	484884.316272625	484884.328779209	484890.316272625	484890.32875925	6				40	642.88	-0.6	-0.4999		3		0	2	0	0				0	43
484878.966272625	484883.466272625	5.35	5.348668624996208	484890.316269125	484884.316272625	484884.31494125	484884.316272625	484884.328779209	484890.316272625	484890.32875925	6				40	642.86	-0.6	-0.4999		3		0	2	0	0				0	43
484878.966272625	484884.216272625	5.35	5.348668624996208	484890.316269125	484884.316272625	484884.31494125	484884.316272625	484884.328779209	484890.316272625	484890.32875925	6				40	647.12	-0.6	-0.4999		3		0	2	0	0				0	43
484890.332831625	484890.332831625	5.35	5.348466499999631	484901.682828583	484895.682831625	484895.681298125	484895.682831625	484895.69548175	484901.682831625	484901.695449125	6				40	648.58	-0.6	-0.4999		3		0	3	0	0				0	44
484890.332831625	484891.082831625	5.35	5.348466499999631	484901.682828583	484895.682831625	484895.681298125	484895.682831625	484895.69548175	484901.682831625	484901.695449125	6				40	651.04	-0.6	-0.4999		3		0	3	0	0				0	44
484890.332831625	484891.832831625	5.35	5.348466499999631	484901.682828583	484895.682831625	484895.681298125	484895.682831625	484895.69548175	484901.682831625	484901.695449125	6				40	652.1	-0.6	-0.4999		3		0	3	0	0				0	44
484890.332831625	484892.582831625	5.35	5.348466499999631	484901.682828583	484895.682831625	484895.681298125	484895.682831625	484895.69548175	484901.682831625	484901.695449125	6				40	644.03	-0.6	-0.4999		3		0	3	1	0				0	44
484890.332831625	484893.332831625	5.35	5.348466499999631	484901.682828583	484895.682831625	484895.681298125	484895.682831625	484895.69548175	484901.682831625	484901.695449125	6				40	655.51	-0.6	-0.4999		3		0	3	0	0				0	44
484890.332831625	484894.082831625	5.35	5.348466499999631	484901.682828583	484895.682831625	484895.681298125	484895.682831625	484895.69548175	484901.682831625	484901.695449125	6				40	653.28	-0.6	-0.4999		3		0	3	0	0				0	44
484890.332831625	484894.832831625	5.35	5.348466499999631	484901.682828583	484895.682831625	484895.681298125	484895.682831625	484895.69548175	484901.682831625	484901.695449125	6				40	655.02	-0.6	-0.4999		3		0	3	0	0				0	44
484890.332831625	484895.582831625	5.35	5.348466499999631	484901.682828583	484895.682831625	484895.681298125	484895.682831625	484895.69548175	484901.682831625	484901.695449125	6				40	655.71	-0.6	-0.4999		3		0	3	0	0				0	44
484901.699391083	484901.699391083	5.35	5.348961084033363	484913.049387791	484907.04939108295	484907.048352167	484907.04939108295	484907.062171167	484913.04939108295	484913.062173167	6				40	656.43	-0.6	-0.4999		3		0	2	0	0				0	45
484901.699391083	484902.449391083	5.35	5.348961084033363	484913.049387791	484907.04939108295	484907.048352167	484907.04939108295	484907.062171167	484913.04939108295	484913.062173167	6				40	654.11	-0.6	-0.4999		3		0	2	0	0				0	45
484901.699391083	484903.199391083	5.35	5.348961084033363	484913.049387791	484907.04939108295	484907.048352167	484907.04939108295	484907.062171167	484913.04939108295	484913.062173167	6				40	642.38	-0.6	-0.4999		3		0	2	1	0				0	45
484901.699391083	484903.949391083	5.35	5.348961084033363	484913.049387791	484907.04939108295	484907.048352167	484907.04939108295	484907.062171167	484913.04939108295	484913.062173167	6				40	650.38	-0.6	-0.4999		3		0	2	0	0				0	45
484901.699391083	484904.699391083	5.35	5.348961084033363	484913.049387791	484907.04939108295	484907.048352167	484907.04939108295	484907.062171167	484913.04939108295	484913.062173167	6				40	651.29	-0.6	-0.4999		3		0	2	0	0				0	45
484901.699391083	484905.449391083	5.35	5.348961084033363	484913.049387791	484907.04939108295	484907.048352167	484907.04939108295	484907.062171167	484913.04939108295	484913.062173167	6				40	651.73	-0.6	-0.4999		3		0	2	0	0				0	45
484901.699391083	484906.199391083	5.35	5.348961084033363	484913.049387791	484907.04939108295	484907.048352167	484907.04939108295	484907.062171167	484913.04939108295	484913.062173167	6				40	650.45	-0.6	-0.4999		3		0	2	0	0				0	45
484901.699391083	484906.949391083	5.35	5.348961084033363	484913.049387791	484907.04939108295	484907.048352167	484907.04939108295	484907.062171167	484913.04939108295	484913.062173167	6				40	645.27	-0.6	-0.4999		3		0	2	0	0				0	45
484913.06626275	484913.06626275	5.35	5.348270167014562	484924.416260083	484918.41626275	484918.414532917	484918.41626275	484918.428772834	484924.41626275	484924.428856042	6				40	644.11	-0.6	-0.4999		3		0	3	0	0				0	46
484913.06626275	484913.81626275	5.35	5.348270167014562	484924.416260083	484918.41626275	484918.414532917	484918.41626275	484918.428772834	484924.41626275	484924.428856042	6				40	644.58	-0.6	-0.4999		3		0	3	0	0				0	46
484913.06626275	484914.56626275	5.35	5.348270167014562	484924.416260083	484918.41626275	484918.414532917	484918.41626275	484918.428772834	484924.41626275	484924.428856042	6				40	640.16	-0.6	-0.4999		3		0	3	0	0				0	46
484913.06626275	484915.31626275	5.35	5.348270167014562	484924.416260083	484918.41626275	484918.414532917	484918.41626275	484918.428772834	484924.41626275	484924.428856042	6				40	647.72	-0.6	-0.4999		3		0	3	1	0				0	46
484913.06626275	484916.06626275	5.35	5.348270167014562	484924.416260083	484918.41626275	484918.414532917	484918.41626275	484918.428772834	484924.41626275	484924.428856042	6				40	630.68	-0.6	-0.4999		3		0	3	0	0				0	46
484913.06626275	484916.81626275	5.35	5.348270167014562	484924.416260083	484918.41626275	484918.414532917	484918.41626275	484918.428772834	484924.41626275	484924.428856042	6				40	631.36	-0.6	-0.4999		3		0	3	0	0				0	46
484913.06626275	484917.56626275	5.35	5.348270167014562	484924.416260083	484918.41626275	484918.414532917	484918.41626275	484918.428772834	484924.41626275	484924.428856042	6				40	635.44	-0.6	-0.4999		3		0	3	0	0				0	46
484913.06626275	484918.31626275	5.35	5.348270167014562	484924.416260083	484918.41626275	484918.414532917	484918.41626275	484918.428772834	484924.41626275	484924.428856042	6				40	635.77	-0.6	-0.4999		3		0	3	0	0				0	46
484924.432822583	484924.432822583	5.35	5.348677250964101	484935.78282033297	484929.782822583	484929.781499834	484929.782822583	484929.795565917	484935.782822583	484935.795569125	6				40	635.22	-0.6	-0.4999		3		0	3	0	0				0	47
484924.432822583	484925.182822583	5.35	5.348677250964101	484935.78282033297	484929.782822583	484929.781499834	484929.782822583	484929.795565917	484935.782822583	484935.795569125	6				40	629.25	-0.6	-0.4999		3		0	3	0	0				0	47
484924.432822583	484925.932822583	5.35	5.348677250964101	484935.78282033297	484929.782822583	484929.781499834	484929.782822583	484929.795565917	484935.782822583	484935.795569125	6				40	638.58	-0.6	-0.4999		3		0	3	0	0				0	47
484924.432822583	484926.682822583	5.35	5.348677250964101	484935.78282033297	484929.782822583	484929.781499834	484929.782822583	484929.795565917	484935.782822583	484935.795569125	6				40	644.11	-0.6	-0.4999		3		0	3	1	0				0	47
484924.432822583	484927.432822583	5.35	5.348677250964101	484935.78282033297	484929.782822583	484929.781499834	484929.782822583	484929.795565917	484935.782822583	484935.795569125	6				40	651.0	-0.6	-0.4999		3		0	3	0	0				0	47
484924.432822583	484928.182822583	5.35	5.348677250964101	484935.78282033297	484929.782822583	484929.781499834	484929.782822583	484929.795565917	484935.782822583	484935.795569125	6				40	652.22	-0.6	-0.4999		3		0	3	0	0				0	47
484924.432822583	484928.932822583	5.35	5.348677250964101	484935.78282033297	484929.782822583	484929.781499834	484929.782822583	484929.795565917	484935.782822583	484935.795569125	6				40	645.3	-0.6	-0.4999		3		0	3	0	0				0	47
484924.432822583	484929.682822583	5.35	5.348677250964101	484935.78282033297	484929.782822583	484929.781499834	484929.782822583	484929.795565917	484935.782822583	484935.795569125	6				40	645.57	-0.6	-0.4999		3		0	3	0	0				0	47
484935.799695333	484935.799695333	5.35	5.348175000981428	484947.149693291	484941.149695333	484941.147870334	484941.149695333	484941.162231209	484947.149695333	484947.162252709	6				40	648.69	-0.6	-0.4999		4		2	0	0	0				0	48
484935.799695333	484936.549695333	5.35	5.348175000981428	484947.149693291	484941.149695333	484941.147870334	484941.149695333	484941.162231209	484947.149695333	484947.162252709	6				40	639.07	-0.6	-0.4999		4		2	0	0	0				0	48
484935.799695333	484937.299695333	5.35	5.348175000981428	484947.149693291	484941.149695333	484941.147870334	484941.149695333	484941.162231209	484947.149695333	484947.162252709	6				40	643.54	-0.6	-0.4999		4		2	0	0	0				0	48
484935.799695333	484938.049695333	5.35	5.348175000981428	484947.149693291	484941.149695333	484941.147870334	484941.149695333	484941.162231209	484947.149695333	484947.162252709	6				40	636.28	-0.6	-0.4999		4		2	0	0	0				0	48
484935.799695333	484938.799695333	5.35	5.348175000981428	484947.149693291	484941.149695333	484941.147870334	484941.149695333	484941.162231209	484947.149695333	484947.162252709	6				40	636.93	-0.6	-0.4999		4		2	0	0	0				0	48
484935.799695333	484939.549695333	5.35	5.348175000981428	484947.149693291	484941.149695333	484941.147870334	484941.149695333	484941.162231209	484947.149695333	484947.162252709	6				40	640.11	-0.6	-0.4999		4		2	0	0	0				0	48
484935.799695333	484940.299695333	5.35	5.348175000981428	484947.149693291	484941.149695333	484941.147870334	484941.149695333	484941.162231209	484947.149695333	484947.162252709	6				40	644.3	-0.6	-0.4999		4		2	0	0	0				0	48
484935.799695333	484941.049695333	5.35	5.348175000981428	484947.149693291	484941.149695333	484941.147870334	484941.149695333	484941.162231209	484947.149695333	484947.162252709	6				40	651.11	-0.6	-0.4999		4		2	0	0	0				0	48
484947.16625579103	484947.16625579103	5.35	5.3486437509418465	484958.516254125	484952.516255791	484952.514899542	484952.516255791	484952.528661959	484958.516255791	484958.528021542	6				40	650.29	-0.6	-0.4999		3		1	4	0	0				0	49
484947.16625579103	484947.91625579103	5.35	5.3486437509418465	484958.516254125	484952.516255791	484952.514899542	484952.516255791	484952.528661959	484958.516255791	484958.528021542	6				40	649.76	-0.6	-0.4999		3		1	4	0	0				0	49
484947.16625579103	484948.66625579103	5.35	5.3486437509418465	484958.516254125	484952.516255791	484952.514899542	484952.516255791	484952.528661959	484958.516255791	484958.528021542	6				40	644.63	-0.6	-0.4999		3		1	4	0	0				0	49
484947.16625579103	484949.41625579103	5.35	5.3486437509418465	484958.516254125	484952.516255791	484952.514899542	484952.516255791	484952.528661959	484958.516255791	484958.528021542	6				40	645.52	-0.6	-0.4999		3		1	4	0	0				0	49
484947.16625579103	484950.16625579103	5.35	5.3486437509418465	484958.516254125	484952.516255791	484952.514899542	484952.516255791	484952.528661959	484958.516255791	484958.528021542	6				40	638.5	-0.6	-0.4999		3		1	4	1	0				0	49
484947.16625579103	484950.91625579103	5.35	5.3486437509418465	484958.516254125	484952.516255791	484952.514899542	484952.516255791	484952.528661959	484958.516255791	484958.528021542	6				40	650.69	-0.6	-0.4999		3		1	4	0	0				0	49
484947.16625579103	484951.66625579103	5.35	5.3486437509418465	484958.516254125	484952.516255791	484952.514899542	484952.516255791	484952.528661959	484958.516255791	484958.528021542	6				40	651.98	-0.6	-0.4999		3		1	4	0	0				0	49
484947.16625579103	484952.41625579103	5.35	5.3486437509418465	484958.516254125	484952.516255791	484952.514899542	484952.516255791	484952.528661959	484958.516255791	484958.528021542	6				40	648.69	-0.6	-0.4999		3		1	4	0	0				0	49
484962.532191208	484962.532191208	5.35	5.349358375999145	484973.882190916	484967.88219120796	484967.881549584	484967.88219120796	484967.89549175	484973.88219120796	484973.895457125	6				40	653.08	-0.6	-0.4999		3		1	6	0	1				0	50
484962.532191208	484963.282191208	5.35	5.349358375999145	484973.882190916	484967.88219120796	484967.881549584	484967.88219120796	484967.89549175	484973.88219120796	484973.895457125	6				40	652.79	-0.6	-0.4999		3		1	6	0	1				0	50
484962.532191208	484964.032191208	5.35	5.349358375999145	484973.882190916	484967.88219120796	484967.881549584	484967.88219120796	484967.89549175	484973.88219120796	484973.895457125	6				40	647.27	-0.6	-0.4999		3		1	6	0	1				0	50
484962.532191208	484964.782191208	5.35	5.349358375999145	484973.882190916	484967.88219120796	484967.881549584	484967.88219120796	484967.89549175	484973.88219120796	484973.895457125	6				40	647.23	-0.6	-0.4999		3		1	6	0	1				0	50
484962.532191208	484965.532191208	5.35	5.349358375999145	484973.882190916	484967.88219120796	484967.881549584	484967.88219120796	484967.89549175	484973.88219120796	484973.895457125	6				40	641.41	-0.6	-0.4999		3		1	6	0	1				0	50
484962.532191208	484966.282191208	5.35	5.349358375999145	484973.882190916	484967.88219120796	484967.881549584	484967.88219120796	484967.89549175	484973.88219120796	484973.895457125	6				40	635.87	-0.6	-0.4999		3		1	6	0	1				0	50
484962.532191208	484967.032191208	5.35	5.349358375999145	484973.882190916	484967.88219120796	484967.881549584	484967.88219120796	484967.89549175	484973.88219120796	484973.895457125	6				40	631.32	-0.6	-0.4999		3		1	6	1	1				0	50
484962.532191208	484967.782191208	5.35	5.349358375999145	484973.882190916	484967.88219120796	484967.881549584	484967.88219120796	484967.89549175	484973.88219120796	484973.895457125	6				40	642.08	-0.6	-0.4999		3		1	6	0	1				0	50
484973.899378416	484973.899378416	5.35	5.348790792981163	484985.249377166	484979.249378416	484979.248169209	484979.249378416	484979.262146625	484985.249378416	484985.262154	6				40	641.66	-0.6	-0.4999		3		1	4	0	0				0	51
484973.899378416	484974.649378416	5.35	5.348790792981163	484985.249377166	484979.249378416	484979.248169209	484979.249378416	484979.262146625	484985.249378416	484985.262154	6				40	635.63	-0.6	-0.4999		3		1	4	0	0				0	51
484973.899378416	484975.399378416	5.35	5.348790792981163	484985.249377166	484979.249378416	484979.248169209	484979.249378416	484979.262146625	484985.249378416	484985.262154	6				40	632.11	-0.6	-0.4999		3		1	4	0	0				0	51
484973.899378416	484976.149378416	5.35	5.348790792981163	484985.249377166	484979.249378416	484979.248169209	484979.249378416	484979.262146625	484985.249378416	484985.262154	6				40	631.55	-0.6	-0.4999		3		1	4	0	0				0	51
484973.899378416	484976.899378416	5.35	5.348790792981163	484985.249377166	484979.249378416	484979.248169209	484979.249378416	484979.262146625	484985.249378416	484985.262154	6				40	632.93	-0.6	-0.4999		3		1	4	1	0				0	51
484973.899378416	484977.649378416	5.35	5.348790792981163	484985.249377166	484979.249378416	484979.248169209	484979.249378416	484979.262146625	484985.249378416	484985.262154	6				40	629.29	-0.6	-0.4999		3		1	4	0	0				0	51
484973.899378416	484978.399378416	5.35	5.348790792981163	484985.249377166	484979.249378416	484979.248169209	484979.249378416	484979.262146625	484985.249378416	484985.262154	6				40	624.41	-0.6	-0.4999		3		1	4	0	0				0	51
484973.899378416	484979.149378416	5.35	5.348790792981163	484985.249377166	484979.249378416	484979.248169209	484979.249378416	484979.262146625	484985.249378416	484985.262154	6				40	624.46	-0.6	-0.4999		3		1	4	0	0				0	51
484985.266252166	484985.266252166	5.35	5.3486234589945525	484996.61624991597	484990.616252166	484990.614875625	484990.616252166	484990.628828875	484996.616252166	484996.62890575	6				40	623.0	-0.6	-0.4999		3		1	6	0	0				0	52
484985.266252166	484986.016252166	5.35	5.3486234589945525	484996.61624991597	484990.616252166	484990.614875625	484990.616252166	484990.628828875	484996.616252166	484996.62890575	6				40	633.02	-0.6	-0.4999		3		1	6	0	0				0	52
484985.266252166	484986.766252166	5.35	5.3486234589945525	484996.61624991597	484990.616252166	484990.614875625	484990.616252166	484990.628828875	484996.616252166	484996.62890575	6				40	639.1	-0.6	-0.4999		3		1	6	0	0				0	52
484985.266252166	484987.516252166	5.35	5.3486234589945525	484996.61624991597	484990.616252166	484990.614875625	484990.616252166	484990.628828875	484996.616252166	484996.62890575	6				40	632.7	-0.6	-0.4999		3		1	6	0	0				0	52
484985.266252166	484988.266252166	5.35	5.3486234589945525	484996.61624991597	484990.616252166	484990.614875625	484990.616252166	484990.628828875	484996.616252166	484996.62890575	6				40	632.01	-0.6	-0.4999		3		1	6	0	0				0	52
484985.266252166	484989.016252166	5.35	5.3486234589945525	484996.61624991597	484990.616252166	484990.614875625	484990.616252166	484990.628828875	484996.616252166	484996.62890575	6				40	621.59	-0.6	-0.4999		3		1	6	0	0				0	52
484985.266252166	484989.766252166	5.35	5.3486234589945525	484996.61624991597	484990.616252166	484990.614875625	484990.616252166	484990.628828875	484996.616252166	484996.62890575	6				40	622.34	-0.6	-0.4999		3		1	6	1	0				0	52
484985.266252166	484990.516252166	5.35	5.3486234589945525	484996.61624991597	484990.616252166	484990.614875625	484990.616252166	484990.628828875	484996.616252166	484996.62890575	6				40	626.93	-0.6	-0.4999		3		1	6	0	0				0	52
485000.633124	485000.633124	5.35	5.348378250026144	485011.98312375	485005.98312399996	485005.98150225	485005.98312399996	485005.995469959	485011.98312399996	485011.995617542	6				40	625.61	-0.6	-0.4999		3		1	4	0	1				0	53
485000.633124	485001.383124	5.35	5.348378250026144	485011.98312375	485005.98312399996	485005.98150225	485005.98312399996	485005.995469959	485011.98312399996	485011.995617542	6				40	633.94	-0.6	-0.4999		3		1	4	0	1				0	53
485000.633124	485002.133124	5.35	5.348378250026144	485011.98312375	485005.98312399996	485005.98150225	485005.98312399996	485005.995469959	485011.98312399996	485011.995617542	6				40	635.62	-0.6	-0.4999		3		1	4	0	1				0	53
485000.633124	485002.883124	5.35	5.348378250026144	485011.98312375	485005.98312399996	485005.98150225	485005.98312399996	485005.995469959	485011.98312399996	485011.995617542	6				40	643.66	-0.6	-0.4999		3		1	4	0	1				0	53
485000.633124	485003.633124	5.35	5.348378250026144	485011.98312375	485005.98312399996	485005.98150225	485005.98312399996	485005.995469959	485011.98312399996	485011.995617542	6				40	641.33	-0.6	-0.4999		3		1	4	1	1				0	53
485000.633124	485004.383124	5.35	5.348378250026144	485011.98312375	485005.98312399996	485005.98150225	485005.98312399996	485005.995469959	485011.98312399996	485011.995617542	6				40	635.79	-0.6	-0.4999		3		1	4	0	1				0	53
485000.633124	485005.133124	5.35	5.348378250026144	485011.98312375	485005.98312399996	485005.98150225	485005.98312399996	485005.995469959	485011.98312399996	485011.995617542	6				40	643.83	-0.6	-0.4999		3		1	4	0	1				0	53
485000.633124	485005.883124	5.35	5.348378250026144	485011.98312375	485005.98312399996	485005.98150225	485005.98312399996	485005.995469959	485011.98312399996	485011.995617542	6				40	638.81	-0.6	-0.4999		3		1	4	0	1				0	53
485011.99968625	485011.99968625	5.35	5.3485188339836895	485023.349685416	485017.34968625	485017.348205084	485017.34968625	485017.3620635	485023.34968625	485023.362212	6				40	644.03	-0.6	-0.4999		3		1	4	0	0				0	54
485011.99968625	485012.74968625	5.35	5.3485188339836895	485023.349685416	485017.34968625	485017.348205084	485017.34968625	485017.3620635	485023.34968625	485023.362212	6				40	636.24	-0.6	-0.4999		3		1	4	0	0				0	54
485011.99968625	485013.49968625	5.35	5.3485188339836895	485023.349685416	485017.34968625	485017.348205084	485017.34968625	485017.3620635	485023.34968625	485023.362212	6				40	642.79	-0.6	-0.4999		3		1	4	0	0				0	54
485011.99968625	485014.24968625	5.35	5.3485188339836895	485023.349685416	485017.34968625	485017.348205084	485017.34968625	485017.3620635	485023.34968625	485023.362212	6				40	641.98	-0.6	-0.4999		3		1	4	0	0				0	54
485011.99968625	485014.99968625	5.35	5.3485188339836895	485023.349685416	485017.34968625	485017.348205084	485017.34968625	485017.3620635	485023.34968625	485023.362212	6				40	629.75	-0.6	-0.4999		3		1	4	1	0				0	54
485011.99968625	485015.74968625	5.35	5.3485188339836895	485023.349685416	485017.34968625	485017.348205084	485017.34968625	485017.3620635	485023.34968625	485023.362212	6				40	641.55	-0.6	-0.4999		3		1	4	0	0				0	54
485011.99968625	485016.49968625	5.35	5.3485188339836895	485023.349685416	485017.34968625	485017.348205084	485017.34968625	485017.3620635	485023.34968625	485023.362212	6				40	635.32	-0.6	-0.4999		3		1	4	0	0				0	54
485011.99968625	485017.24968625	5.35	5.3485188339836895	485023.349685416	485017.34968625	485017.348205084	485017.34968625	485017.3620635	485023.34968625	485023.362212	6				40	632.13	-0.6	-0.4999		3		1	4	0	0				0	54
485023.366247916	485023.366247916	5.35	5.348707958997693	485034.716246333	485028.716247916	485028.714955875	485028.716247916	485028.728800459	485034.716247916	485034.728763959	6				40	634.35	-0.6	-0.4999		3		1	6	0	0				0	55
485023.366247916	485024.116247916	5.35	5.348707958997693	485034.716246333	485028.716247916	485028.714955875	485028.716247916	485028.728800459	485034.716247916	485034.728763959	6				40	627.87	-0.6	-0.4999		3		1	6	0	0				0	55
485023.366247916	485024.866247916	5.35	5.348707958997693	485034.716246333	485028.716247916	485028.714955875	485028.716247916	485028.728800459	485034.716247916	485034.728763959	6				40	631.16	-0.6	-0.4999		3		1	6	0	0				0	55
