onset	onset_tone	duration	duration_getsecs	offset_trial	offset_sound	offset_sound_getsecs	onset_iti	onset_iti_getsecs	offset_iti	offset_iti_getsecs	ITI	rt_getsecs_trial	rt_getsecs_dev	rt_slider_getsecs	tau_std	frequency	lim_std	lim_dev	key_pressed	correct	confidence	rule	dpos	trial_type	runs	trial_no
62577.514222833335	62577.514222833335	5.35	5.339805083662213	62588.86569045834	62582.864222833334	62582.854027917	62582.864222833334	62582.867154417	62588.864222833334	62588.865397	6	3.6906762506623636	0.6906762506623636	0.047000582999316975	40	606.02	-0.6	-0.4999	u	1	5	0	4	0	0	0
62577.514222833335	62578.264222833335	5.35	5.339805083662213	62588.86569045834	62582.864222833334	62582.854027917	62582.864222833334	62582.867154417	62588.864222833334	62588.865397	6	3.6906762506623636	0.6906762506623636	0.047000582999316975	40	606.4	-0.6	-0.4999	u	1	5	0	4	0	0	0
62577.514222833335	62579.014222833335	5.35	5.339805083662213	62588.86569045834	62582.864222833334	62582.854027917	62582.864222833334	62582.867154417	62588.864222833334	62588.865397	6	3.6906762506623636	0.6906762506623636	0.047000582999316975	40	608.57	-0.6	-0.4999	u	1	5	0	4	0	0	0
62577.514222833335	62579.764222833335	5.35	5.339805083662213	62588.86569045834	62582.864222833334	62582.854027917	62582.864222833334	62582.867154417	62588.864222833334	62588.865397	6	3.6906762506623636	0.6906762506623636	0.047000582999316975	40	608.93	-0.6	-0.4999	u	1	5	0	4	0	0	0
62577.514222833335	62580.514222833335	5.35	5.339805083662213	62588.86569045834	62582.864222833334	62582.854027917	62582.864222833334	62582.867154417	62588.864222833334	62588.865397	6	3.6906762506623636	0.6906762506623636	0.047000582999316975	40	657.87	-0.6	-0.4999	u	1	5	0	4	1	0	0
62577.514222833335	62581.264222833335	5.35	5.339805083662213	62588.86569045834	62582.864222833334	62582.854027917	62582.864222833334	62582.867154417	62588.864222833334	62588.865397	6	3.6906762506623636	0.6906762506623636	0.047000582999316975	40	612.7	-0.6	-0.4999	u	1	5	0	4	0	0	0
62577.514222833335	62582.014222833335	5.35	5.339805083662213	62588.86569045834	62582.864222833334	62582.854027917	62582.864222833334	62582.867154417	62588.864222833334	62588.865397	6	3.6906762506623636	0.6906762506623636	0.047000582999316975	40	607.29	-0.6	-0.4999	u	1	5	0	4	0	0	0
62577.514222833335	62582.764222833335	5.35	5.339805083662213	62588.86569045834	62582.864222833334	62582.854027917	62582.864222833334	62582.867154417	62588.864222833334	62588.865397	6	3.6906762506623636	0.6906762506623636	0.047000582999316975	40	604.1	-0.6	-0.4999	u	1	5	0	4	0	0	0
62588.87194049934	62588.87194049934	5.35	5.348873000657477	62600.22201120834	62594.22194049934	62594.2208135	62594.22194049934	62594.233923125	62600.22194049934	62600.233980584	6	3.0792576676612953	0.8292576676612953	0.5117205839997041	40	604.56	-0.6	-0.4999	y	1	4	0	3	0	0	1
62588.87194049934	62589.62194049934	5.35	5.348873000657477	62600.22201120834	62594.22194049934	62594.2208135	62594.22194049934	62594.233923125	62600.22194049934	62600.233980584	6	3.0792576676612953	0.8292576676612953	0.5117205839997041	40	609.18	-0.6	-0.4999	y	1	4	0	3	0	0	1
62588.87194049934	62590.37194049934	5.35	5.348873000657477	62600.22201120834	62594.22194049934	62594.2208135	62594.22194049934	62594.233923125	62600.22194049934	62600.233980584	6	3.0792576676612953	0.8292576676612953	0.5117205839997041	40	609.52	-0.6	-0.4999	y	1	4	0	3	0	0	1
62588.87194049934	62591.12194049934	5.35	5.348873000657477	62600.22201120834	62594.22194049934	62594.2208135	62594.22194049934	62594.233923125	62600.22194049934	62600.233980584	6	3.0792576676612953	0.8292576676612953	0.5117205839997041	40	662.71	-0.6	-0.4999	y	1	4	0	3	1	0	1
62588.87194049934	62591.87194049934	5.35	5.348873000657477	62600.22201120834	62594.22194049934	62594.2208135	62594.22194049934	62594.233923125	62600.22194049934	62600.233980584	6	3.0792576676612953	0.8292576676612953	0.5117205839997041	40	614.99	-0.6	-0.4999	y	1	4	0	3	0	0	1
62588.87194049934	62592.62194049934	5.35	5.348873000657477	62600.22201120834	62594.22194049934	62594.2208135	62594.22194049934	62594.233923125	62600.22194049934	62600.233980584	6	3.0792576676612953	0.8292576676612953	0.5117205839997041	40	616.71	-0.6	-0.4999	y	1	4	0	3	0	0	1
62588.87194049934	62593.37194049934	5.35	5.348873000657477	62600.22201120834	62594.22194049934	62594.2208135	62594.22194049934	62594.233923125	62600.22194049934	62600.233980584	6	3.0792576676612953	0.8292576676612953	0.5117205839997041	40	614.72	-0.6	-0.4999	y	1	4	0	3	0	0	1
62588.87194049934	62594.12194049934	5.35	5.348873000657477	62600.22201120834	62594.22194049934	62594.2208135	62594.22194049934	62594.233923125	62600.22194049934	62600.233980584	6	3.0792576676612953	0.8292576676612953	0.5117205839997041	40	609.72	-0.6	-0.4999	y	1	4	0	3	0	0	1
62600.239198791336	62600.239198791336	5.35	5.348324708662403	62611.58926745834	62605.589198791335	62605.5875235	62605.589198791335	62605.600650584	62611.589198791335	62611.60070675	6			0.6003460840001935	40	609.48	-0.6	-0.4999		4	5	2	0	0	0	2
62600.239198791336	62600.989198791336	5.35	5.348324708662403	62611.58926745834	62605.589198791335	62605.5875235	62605.589198791335	62605.600650584	62611.589198791335	62611.60070675	6			0.6003460840001935	40	605.01	-0.6	-0.4999		4	5	2	0	0	0	2
62600.239198791336	62601.739198791336	5.35	5.348324708662403	62611.58926745834	62605.589198791335	62605.5875235	62605.589198791335	62605.600650584	62611.589198791335	62611.60070675	6			0.6003460840001935	40	606.99	-0.6	-0.4999		4	5	2	0	0	0	2
62600.239198791336	62602.489198791336	5.35	5.348324708662403	62611.58926745834	62605.589198791335	62605.5875235	62605.589198791335	62605.600650584	62611.589198791335	62611.60070675	6			0.6003460840001935	40	605.91	-0.6	-0.4999		4	5	2	0	0	0	2
62600.239198791336	62603.239198791336	5.35	5.348324708662403	62611.58926745834	62605.589198791335	62605.5875235	62605.589198791335	62605.600650584	62611.589198791335	62611.60070675	6			0.6003460840001935	40	611.12	-0.6	-0.4999		4	5	2	0	0	0	2
62600.239198791336	62603.989198791336	5.35	5.348324708662403	62611.58926745834	62605.589198791335	62605.5875235	62605.589198791335	62605.600650584	62611.589198791335	62611.60070675	6			0.6003460840001935	40	609.36	-0.6	-0.4999		4	5	2	0	0	0	2
62600.239198791336	62604.739198791336	5.35	5.348324708662403	62611.58926745834	62605.589198791335	62605.5875235	62605.589198791335	62605.600650584	62611.589198791335	62611.60070675	6			0.6003460840001935	40	610.72	-0.6	-0.4999		4	5	2	0	0	0	2
62600.239198791336	62605.489198791336	5.35	5.348324708662403	62611.58926745834	62605.589198791335	62605.5875235	62605.589198791335	62605.600650584	62611.589198791335	62611.60070675	6			0.6003460840001935	40	614.02	-0.6	-0.4999		4	5	2	0	0	0	2
62611.60645508334	62611.60645508334	5.35	5.346690041660622	62622.95652266634	62616.95645508334	62616.953145125	62616.95645508334	62616.967368	62622.95645508334	62622.967385042	6	3.594948291662149	0.5949482916621491	0.48342466600297485	40	611.92	-0.6	-0.4999	u	1	5	1	4	0	0	3
62611.60645508334	62612.35645508334	5.35	5.346690041660622	62622.95652266634	62616.95645508334	62616.953145125	62616.95645508334	62616.967368	62622.95645508334	62622.967385042	6	3.594948291662149	0.5949482916621491	0.48342466600297485	40	613.65	-0.6	-0.4999	u	1	5	1	4	0	0	3
62611.60645508334	62613.10645508334	5.35	5.346690041660622	62622.95652266634	62616.95645508334	62616.953145125	62616.95645508334	62616.967368	62622.95645508334	62622.967385042	6	3.594948291662149	0.5949482916621491	0.48342466600297485	40	613.56	-0.6	-0.4999	u	1	5	1	4	0	0	3
62611.60645508334	62613.85645508334	5.35	5.346690041660622	62622.95652266634	62616.95645508334	62616.953145125	62616.95645508334	62616.967368	62622.95645508334	62622.967385042	6	3.594948291662149	0.5949482916621491	0.48342466600297485	40	612.8	-0.6	-0.4999	u	1	5	1	4	0	0	3
62611.60645508334	62614.60645508334	5.35	5.346690041660622	62622.95652266634	62616.95645508334	62616.953145125	62616.95645508334	62616.967368	62622.95645508334	62622.967385042	6	3.594948291662149	0.5949482916621491	0.48342466600297485	40	650.98	-0.6	-0.4999	u	1	5	1	4	1	0	3
62611.60645508334	62615.35645508334	5.35	5.346690041660622	62622.95652266634	62616.95645508334	62616.953145125	62616.95645508334	62616.967368	62622.95645508334	62622.967385042	6	3.594948291662149	0.5949482916621491	0.48342466600297485	40	612.67	-0.6	-0.4999	u	1	5	1	4	0	0	3
62611.60645508334	62616.10645508334	5.35	5.346690041660622	62622.95652266634	62616.95645508334	62616.953145125	62616.95645508334	62616.967368	62622.95645508334	62622.967385042	6	3.594948291662149	0.5949482916621491	0.48342466600297485	40	609.33	-0.6	-0.4999	u	1	5	1	4	0	0	3
62611.60645508334	62616.85645508334	5.35	5.346690041660622	62622.95652266634	62616.95645508334	62616.953145125	62616.95645508334	62616.967368	62622.95645508334	62622.967385042	6	3.594948291662149	0.5949482916621491	0.48342466600297485	40	605.57	-0.6	-0.4999	u	1	5	1	4	0	0	3
62622.97308524934	62622.97308524934	5.35	5.347186292659899	62634.32315224934	62628.323085249336	62628.320271542	62628.323085249336	62628.334111459	62634.323085249336	62634.334104917	6	4.795040875666018	0.2950408756660181	0.3285158340004273	40	605.46	-0.6	-0.4999	l	1	5	1	6	0	0	4
62622.97308524934	62623.72308524934	5.35	5.347186292659899	62634.32315224934	62628.323085249336	62628.320271542	62628.323085249336	62628.334111459	62634.323085249336	62634.334104917	6	4.795040875666018	0.2950408756660181	0.3285158340004273	40	604.81	-0.6	-0.4999	l	1	5	1	6	0	0	4
62622.97308524934	62624.47308524934	5.35	5.347186292659899	62634.32315224934	62628.323085249336	62628.320271542	62628.323085249336	62628.334111459	62634.323085249336	62634.334104917	6	4.795040875666018	0.2950408756660181	0.3285158340004273	40	601.65	-0.6	-0.4999	l	1	5	1	6	0	0	4
62622.97308524934	62625.22308524934	5.35	5.347186292659899	62634.32315224934	62628.323085249336	62628.320271542	62628.323085249336	62628.334111459	62634.323085249336	62634.334104917	6	4.795040875666018	0.2950408756660181	0.3285158340004273	40	598.37	-0.6	-0.4999	l	1	5	1	6	0	0	4
62622.97308524934	62625.97308524934	5.35	5.347186292659899	62634.32315224934	62628.323085249336	62628.320271542	62628.323085249336	62628.334111459	62634.323085249336	62634.334104917	6	4.795040875666018	0.2950408756660181	0.3285158340004273	40	601.48	-0.6	-0.4999	l	1	5	1	6	0	0	4
62622.97308524934	62626.72308524934	5.35	5.347186292659899	62634.32315224934	62628.323085249336	62628.320271542	62628.323085249336	62628.334111459	62634.323085249336	62634.334104917	6	4.795040875666018	0.2950408756660181	0.3285158340004273	40	602.93	-0.6	-0.4999	l	1	5	1	6	0	0	4
62622.97308524934	62627.47308524934	5.35	5.347186292659899	62634.32315224934	62628.323085249336	62628.320271542	62628.323085249336	62628.334111459	62634.323085249336	62634.334104917	6	4.795040875666018	0.2950408756660181	0.3285158340004273	40	656.37	-0.6	-0.4999	l	1	5	1	6	1	0	4
62622.97308524934	62628.22308524934	5.35	5.347186292659899	62634.32315224934	62628.323085249336	62628.320271542	62628.323085249336	62628.334111459	62634.323085249336	62634.334104917	6	4.795040875666018	0.2950408756660181	0.3285158340004273	40	604.33	-0.6	-0.4999	l	1	5	1	6	0	0	4
62634.33971483334	62634.33971483334	5.35	5.348065125661378	62645.68978241634	62639.68971483334	62639.687779959	62639.68971483334	62639.700811792	62645.68971483334	62645.700906417	6	4.962033083662391	1.2120330836623907	0.4179381249996368	40	602.11	-0.6	-0.4999	i	1	5	1	5	0	0	5
62634.33971483334	62635.08971483334	5.35	5.348065125661378	62645.68978241634	62639.68971483334	62639.687779959	62639.68971483334	62639.700811792	62645.68971483334	62645.700906417	6	4.962033083662391	1.2120330836623907	0.4179381249996368	40	603.32	-0.6	-0.4999	i	1	5	1	5	0	0	5
62634.33971483334	62635.83971483334	5.35	5.348065125661378	62645.68978241634	62639.68971483334	62639.687779959	62639.68971483334	62639.700811792	62645.68971483334	62645.700906417	6	4.962033083662391	1.2120330836623907	0.4179381249996368	40	603.84	-0.6	-0.4999	i	1	5	1	5	0	0	5
62634.33971483334	62636.58971483334	5.35	5.348065125661378	62645.68978241634	62639.68971483334	62639.687779959	62639.68971483334	62639.700811792	62645.68971483334	62645.700906417	6	4.962033083662391	1.2120330836623907	0.4179381249996368	40	605.32	-0.6	-0.4999	i	1	5	1	5	0	0	5
62634.33971483334	62637.33971483334	5.35	5.348065125661378	62645.68978241634	62639.68971483334	62639.687779959	62639.68971483334	62639.700811792	62645.68971483334	62645.700906417	6	4.962033083662391	1.2120330836623907	0.4179381249996368	40	604.52	-0.6	-0.4999	i	1	5	1	5	0	0	5
62634.33971483334	62638.08971483334	5.35	5.348065125661378	62645.68978241634	62639.68971483334	62639.687779959	62639.68971483334	62639.700811792	62645.68971483334	62645.700906417	6	4.962033083662391	1.2120330836623907	0.4179381249996368	40	677.14	-0.6	-0.4999	i	1	5	1	5	1	0	5
62634.33971483334	62638.83971483334	5.35	5.348065125661378	62645.68978241634	62639.68971483334	62639.687779959	62639.68971483334	62639.700811792	62645.68971483334	62645.700906417	6	4.962033083662391	1.2120330836623907	0.4179381249996368	40	612.44	-0.6	-0.4999	i	1	5	1	5	0	0	5
62634.33971483334	62639.58971483334	5.35	5.348065125661378	62645.68978241634	62639.68971483334	62639.687779959	62639.68971483334	62639.700811792	62645.68971483334	62645.700906417	6	4.962033083662391	1.2120330836623907	0.4179381249996368	40	614.97	-0.6	-0.4999	i	1	5	1	5	0	0	5
62645.70634504134	62645.70634504134	5.35	5.348250750656007	62657.05641191634	62651.05634504134	62651.054595792	62651.05634504134	62651.067669125	62657.05634504134	62657.067578792	6	6.194719792656542	6.194719792656542	0.9455039590029628	40	612.65	-0.6	-0.4999	y	4	5	2	0	0	0	6
62645.70634504134	62646.45634504134	5.35	5.348250750656007	62657.05641191634	62651.05634504134	62651.054595792	62651.05634504134	62651.067669125	62657.05634504134	62657.067578792	6	6.194719792656542	6.194719792656542	0.9455039590029628	40	618.83	-0.6	-0.4999	y	4	5	2	0	0	0	6
62645.70634504134	62647.20634504134	5.35	5.348250750656007	62657.05641191634	62651.05634504134	62651.054595792	62651.05634504134	62651.067669125	62657.05634504134	62657.067578792	6	6.194719792656542	6.194719792656542	0.9455039590029628	40	618.37	-0.6	-0.4999	y	4	5	2	0	0	0	6
62645.70634504134	62647.95634504134	5.35	5.348250750656007	62657.05641191634	62651.05634504134	62651.054595792	62651.05634504134	62651.067669125	62657.05634504134	62657.067578792	6	6.194719792656542	6.194719792656542	0.9455039590029628	40	620.83	-0.6	-0.4999	y	4	5	2	0	0	0	6
62645.70634504134	62648.70634504134	5.35	5.348250750656007	62657.05641191634	62651.05634504134	62651.054595792	62651.05634504134	62651.067669125	62657.05634504134	62657.067578792	6	6.194719792656542	6.194719792656542	0.9455039590029628	40	624.84	-0.6	-0.4999	y	4	5	2	0	0	0	6
62645.70634504134	62649.45634504134	5.35	5.348250750656007	62657.05641191634	62651.05634504134	62651.054595792	62651.05634504134	62651.067669125	62657.05634504134	62657.067578792	6	6.194719792656542	6.194719792656542	0.9455039590029628	40	626.8	-0.6	-0.4999	y	4	5	2	0	0	0	6
62645.70634504134	62650.20634504134	5.35	5.348250750656007	62657.05641191634	62651.05634504134	62651.054595792	62651.05634504134	62651.067669125	62657.05634504134	62657.067578792	6	6.194719792656542	6.194719792656542	0.9455039590029628	40	627.91	-0.6	-0.4999	y	4	5	2	0	0	0	6
62645.70634504134	62650.95634504134	5.35	5.348250750656007	62657.05641191634	62651.05634504134	62651.054595792	62651.05634504134	62651.067669125	62657.05634504134	62657.067578792	6	6.194719792656542	6.194719792656542	0.9455039590029628	40	629.04	-0.6	-0.4999	y	4	5	2	0	0	0	6
62657.07297449934	62657.07297449934	5.35	5.348197334664292	62668.42304229134	62662.422974499335	62662.421171834	62662.422974499335	62662.433508667	62668.422974499335	62668.434401959	6	2.995308417659544	1.495308417659544	0.37859791699884227	40	627.61	-0.6	-0.4999	v	1	5	0	2	0	0	7
62657.07297449934	62657.82297449934	5.35	5.348197334664292	62668.42304229134	62662.422974499335	62662.421171834	62662.422974499335	62662.433508667	62668.422974499335	62668.434401959	6	2.995308417659544	1.495308417659544	0.37859791699884227	40	629.48	-0.6	-0.4999	v	1	5	0	2	0	0	7
62657.07297449934	62658.57297449934	5.35	5.348197334664292	62668.42304229134	62662.422974499335	62662.421171834	62662.422974499335	62662.433508667	62668.422974499335	62668.434401959	6	2.995308417659544	1.495308417659544	0.37859791699884227	40	664.37	-0.6	-0.4999	v	1	5	0	2	1	0	7
62657.07297449934	62659.32297449934	5.35	5.348197334664292	62668.42304229134	62662.422974499335	62662.421171834	62662.422974499335	62662.433508667	62668.422974499335	62668.434401959	6	2.995308417659544	1.495308417659544	0.37859791699884227	40	621.81	-0.6	-0.4999	v	1	5	0	2	0	0	7
62657.07297449934	62660.07297449934	5.35	5.348197334664292	62668.42304229134	62662.422974499335	62662.421171834	62662.422974499335	62662.433508667	62668.422974499335	62668.434401959	6	2.995308417659544	1.495308417659544	0.37859791699884227	40	620.92	-0.6	-0.4999	v	1	5	0	2	0	0	7
62657.07297449934	62660.82297449934	5.35	5.348197334664292	62668.42304229134	62662.422974499335	62662.421171834	62662.422974499335	62662.433508667	62668.422974499335	62668.434401959	6	2.995308417659544	1.495308417659544	0.37859791699884227	40	618.27	-0.6	-0.4999	v	1	5	0	2	0	0	7
62657.07297449934	62661.57297449934	5.35	5.348197334664292	62668.42304229134	62662.422974499335	62662.421171834	62662.422974499335	62662.433508667	62668.422974499335	62668.434401959	6	2.995308417659544	1.495308417659544	0.37859791699884227	40	612.37	-0.6	-0.4999	v	1	5	0	2	0	0	7
62657.07297449934	62662.32297449934	5.35	5.348197334664292	62668.42304229134	62662.422974499335	62662.421171834	62662.422974499335	62662.433508667	62668.422974499335	62668.434401959	6	2.995308417659544	1.495308417659544	0.37859791699884227	40	613.14	-0.6	-0.4999	v	1	5	0	2	0	0	7
62668.43960491634	62668.43960491634	5.35	5.348232125659706	62679.78967266634	62673.78960491634	62673.787837042	62673.78960491634	62673.800990834	62679.78960491634	62679.801050042	6	3.395448958661291	1.1454489586612908	0.428141415999562	40	610.21	-0.6	-0.4999	y	1	5	0	3	0	0	8
62668.43960491634	62669.18960491634	5.35	5.348232125659706	62679.78967266634	62673.78960491634	62673.787837042	62673.78960491634	62673.800990834	62679.78960491634	62679.801050042	6	3.395448958661291	1.1454489586612908	0.428141415999562	40	613.65	-0.6	-0.4999	y	1	5	0	3	0	0	8
62668.43960491634	62669.93960491634	5.35	5.348232125659706	62679.78967266634	62673.78960491634	62673.787837042	62673.78960491634	62673.800990834	62679.78960491634	62679.801050042	6	3.395448958661291	1.1454489586612908	0.428141415999562	40	619.86	-0.6	-0.4999	y	1	5	0	3	0	0	8
62668.43960491634	62670.68960491634	5.35	5.348232125659706	62679.78967266634	62673.78960491634	62673.787837042	62673.78960491634	62673.800990834	62679.78960491634	62679.801050042	6	3.395448958661291	1.1454489586612908	0.428141415999562	40	636.54	-0.6	-0.4999	y	1	5	0	3	1	0	8
62668.43960491634	62671.43960491634	5.35	5.348232125659706	62679.78967266634	62673.78960491634	62673.787837042	62673.78960491634	62673.800990834	62679.78960491634	62679.801050042	6	3.395448958661291	1.1454489586612908	0.428141415999562	40	629.78	-0.6	-0.4999	y	1	5	0	3	0	0	8
62668.43960491634	62672.18960491634	5.35	5.348232125659706	62679.78967266634	62673.78960491634	62673.787837042	62673.78960491634	62673.800990834	62679.78960491634	62679.801050042	6	3.395448958661291	1.1454489586612908	0.428141415999562	40	620.13	-0.6	-0.4999	y	1	5	0	3	0	0	8
62668.43960491634	62672.93960491634	5.35	5.348232125659706	62679.78967266634	62673.78960491634	62673.787837042	62673.78960491634	62673.800990834	62679.78960491634	62679.801050042	6	3.395448958661291	1.1454489586612908	0.428141415999562	40	612.59	-0.6	-0.4999	y	1	5	0	3	0	0	8
62668.43960491634	62673.68960491634	5.35	5.348232125659706	62679.78967266634	62673.78960491634	62673.787837042	62673.78960491634	62673.800990834	62679.78960491634	62679.801050042	6	3.395448958661291	1.1454489586612908	0.428141415999562	40	611.96	-0.6	-0.4999	y	1	5	0	3	0	0	8
62679.80654774934	62679.80654774934	5.35	5.347460875666002	62691.15661412434	62685.156547749335	62685.154008625	62685.156547749335	62685.167772625	62691.156547749335	62691.167811042	6	5.4285204596599215	5.4285204596599215	0.5768349169957219	40	612.18	-0.6	-0.4999	l	5	5	2	0	0	0	9
62679.80654774934	62680.55654774934	5.35	5.347460875666002	62691.15661412434	62685.156547749335	62685.154008625	62685.156547749335	62685.167772625	62691.156547749335	62691.167811042	6	5.4285204596599215	5.4285204596599215	0.5768349169957219	40	616.44	-0.6	-0.4999	l	5	5	2	0	0	0	9
62679.80654774934	62681.30654774934	5.35	5.347460875666002	62691.15661412434	62685.156547749335	62685.154008625	62685.156547749335	62685.167772625	62691.156547749335	62691.167811042	6	5.4285204596599215	5.4285204596599215	0.5768349169957219	40	615.16	-0.6	-0.4999	l	5	5	2	0	0	0	9
62679.80654774934	62682.05654774934	5.35	5.347460875666002	62691.15661412434	62685.156547749335	62685.154008625	62685.156547749335	62685.167772625	62691.156547749335	62691.167811042	6	5.4285204596599215	5.4285204596599215	0.5768349169957219	40	620.45	-0.6	-0.4999	l	5	5	2	0	0	0	9
62679.80654774934	62682.80654774934	5.35	5.347460875666002	62691.15661412434	62685.156547749335	62685.154008625	62685.156547749335	62685.167772625	62691.156547749335	62691.167811042	6	5.4285204596599215	5.4285204596599215	0.5768349169957219	40	625.26	-0.6	-0.4999	l	5	5	2	0	0	0	9
62679.80654774934	62683.55654774934	5.35	5.347460875666002	62691.15661412434	62685.156547749335	62685.154008625	62685.156547749335	62685.167772625	62691.156547749335	62691.167811042	6	5.4285204596599215	5.4285204596599215	0.5768349169957219	40	625.37	-0.6	-0.4999	l	5	5	2	0	0	0	9
62679.80654774934	62684.30654774934	5.35	5.347460875666002	62691.15661412434	62685.156547749335	62685.154008625	62685.156547749335	62685.167772625	62691.156547749335	62691.167811042	6	5.4285204596599215	5.4285204596599215	0.5768349169957219	40	618.67	-0.6	-0.4999	l	5	5	2	0	0	0	9
62679.80654774934	62685.05654774934	5.35	5.347460875666002	62691.15661412434	62685.156547749335	62685.154008625	62685.156547749335	62685.167772625	62691.156547749335	62691.167811042	6	5.4285204596599215	5.4285204596599215	0.5768349169957219	40	618.74	-0.6	-0.4999	l	5	5	2	0	0	0	9
62691.17317670834	62691.17317670834	5.35	5.348258916659688	62702.52324366634	62696.52317670834	62696.521435625	62696.52317670834	62696.533733542	62702.52317670834	62702.534526625	6	5.462091291657998	3.9620912916579982	0.4113710829988122	40	617.57	-0.6	-0.4999	l	0	5	0	2	0	0	10
62691.17317670834	62691.92317670834	5.35	5.348258916659688	62702.52324366634	62696.52317670834	62696.521435625	62696.52317670834	62696.533733542	62702.52317670834	62702.534526625	6	5.462091291657998	3.9620912916579982	0.4113710829988122	40	617.95	-0.6	-0.4999	l	0	5	0	2	0	0	10
62691.17317670834	62692.67317670834	5.35	5.348258916659688	62702.52324366634	62696.52317670834	62696.521435625	62696.52317670834	62696.533733542	62702.52317670834	62702.534526625	6	5.462091291657998	3.9620912916579982	0.4113710829988122	40	632.47	-0.6	-0.4999	l	0	5	0	2	1	0	10
62691.17317670834	62693.42317670834	5.35	5.348258916659688	62702.52324366634	62696.52317670834	62696.521435625	62696.52317670834	62696.533733542	62702.52317670834	62702.534526625	6	5.462091291657998	3.9620912916579982	0.4113710829988122	40	620.7	-0.6	-0.4999	l	0	5	0	2	0	0	10
62691.17317670834	62694.17317670834	5.35	5.348258916659688	62702.52324366634	62696.52317670834	62696.521435625	62696.52317670834	62696.533733542	62702.52317670834	62702.534526625	6	5.462091291657998	3.9620912916579982	0.4113710829988122	40	618.34	-0.6	-0.4999	l	0	5	0	2	0	0	10
62691.17317670834	62694.92317670834	5.35	5.348258916659688	62702.52324366634	62696.52317670834	62696.521435625	62696.52317670834	62696.533733542	62702.52317670834	62702.534526625	6	5.462091291657998	3.9620912916579982	0.4113710829988122	40	622.96	-0.6	-0.4999	l	0	5	0	2	0	0	10
62691.17317670834	62695.67317670834	5.35	5.348258916659688	62702.52324366634	62696.52317670834	62696.521435625	62696.52317670834	62696.533733542	62702.52317670834	62702.534526625	6	5.462091291657998	3.9620912916579982	0.4113710829988122	40	626.75	-0.6	-0.4999	l	0	5	0	2	0	0	10
62691.17317670834	62696.42317670834	5.35	5.348258916659688	62702.52324366634	62696.52317670834	62696.521435625	62696.52317670834	62696.533733542	62702.52317670834	62702.534526625	6	5.462091291657998	3.9620912916579982	0.4113710829988122	40	622.37	-0.6	-0.4999	l	0	5	0	2	0	0	10
62702.53980629134	62702.53980629134	5.35	5.34838250066241	62713.88987287434	62707.889806291336	62707.888188792	62707.889806291336	62707.901238542	62713.889806291336	62713.901336917	6	3.878760125662666	0.8787601256626658	0.3173959999985527	40	624.64	-0.6	-0.4999	u	1	3	0	4	0	0	11
62702.53980629134	62703.28980629134	5.35	5.34838250066241	62713.88987287434	62707.889806291336	62707.888188792	62707.889806291336	62707.901238542	62713.889806291336	62713.901336917	6	3.878760125662666	0.8787601256626658	0.3173959999985527	40	626.38	-0.6	-0.4999	u	1	3	0	4	0	0	11
62702.53980629134	62704.03980629134	5.35	5.34838250066241	62713.88987287434	62707.889806291336	62707.888188792	62707.889806291336	62707.901238542	62713.889806291336	62713.901336917	6	3.878760125662666	0.8787601256626658	0.3173959999985527	40	626.16	-0.6	-0.4999	u	1	3	0	4	0	0	11
62702.53980629134	62704.78980629134	5.35	5.34838250066241	62713.88987287434	62707.889806291336	62707.888188792	62707.889806291336	62707.901238542	62713.889806291336	62713.901336917	6	3.878760125662666	0.8787601256626658	0.3173959999985527	40	624.34	-0.6	-0.4999	u	1	3	0	4	0	0	11
62702.53980629134	62705.53980629134	5.35	5.34838250066241	62713.88987287434	62707.889806291336	62707.888188792	62707.889806291336	62707.901238542	62713.889806291336	62713.901336917	6	3.878760125662666	0.8787601256626658	0.3173959999985527	40	644.16	-0.6	-0.4999	u	1	3	0	4	1	0	11
62702.53980629134	62706.28980629134	5.35	5.34838250066241	62713.88987287434	62707.889806291336	62707.888188792	62707.889806291336	62707.901238542	62713.889806291336	62713.901336917	6	3.878760125662666	0.8787601256626658	0.3173959999985527	40	617.99	-0.6	-0.4999	u	1	3	0	4	0	0	11
62702.53980629134	62707.03980629134	5.35	5.34838250066241	62713.88987287434	62707.889806291336	62707.888188792	62707.889806291336	62707.901238542	62713.889806291336	62713.901336917	6	3.878760125662666	0.8787601256626658	0.3173959999985527	40	620.44	-0.6	-0.4999	u	1	3	0	4	0	0	11
62702.53980629134	62707.78980629134	5.35	5.34838250066241	62713.88987287434	62707.889806291336	62707.888188792	62707.889806291336	62707.901238542	62713.889806291336	62713.901336917	6	3.878760125662666	0.8787601256626658	0.3173959999985527	40	622.17	-0.6	-0.4999	u	1	3	0	4	0	0	11
62713.90674795834	62713.90674795834	5.35	5.348052416658902	62725.25681583334	62719.25674795834	62719.254800375	62719.25674795834	62719.26800925	62725.25674795834	62725.268044334	6	3.6119548336573644	0.6119548336573644	0.3333660830030567	40	621.2	-0.6	-0.4999	u	1	5	0	4	0	0	12
62713.90674795834	62714.65674795834	5.35	5.348052416658902	62725.25681583334	62719.25674795834	62719.254800375	62719.25674795834	62719.26800925	62725.25674795834	62725.268044334	6	3.6119548336573644	0.6119548336573644	0.3333660830030567	40	621.33	-0.6	-0.4999	u	1	5	0	4	0	0	12
62713.90674795834	62715.40674795834	5.35	5.348052416658902	62725.25681583334	62719.25674795834	62719.254800375	62719.25674795834	62719.26800925	62725.25674795834	62725.268044334	6	3.6119548336573644	0.6119548336573644	0.3333660830030567	40	617.77	-0.6	-0.4999	u	1	5	0	4	0	0	12
62713.90674795834	62716.15674795834	5.35	5.348052416658902	62725.25681583334	62719.25674795834	62719.254800375	62719.25674795834	62719.26800925	62725.25674795834	62725.268044334	6	3.6119548336573644	0.6119548336573644	0.3333660830030567	40	622.74	-0.6	-0.4999	u	1	5	0	4	0	0	12
62713.90674795834	62716.90674795834	5.35	5.348052416658902	62725.25681583334	62719.25674795834	62719.254800375	62719.25674795834	62719.26800925	62725.25674795834	62725.268044334	6	3.6119548336573644	0.6119548336573644	0.3333660830030567	40	651.88	-0.6	-0.4999	u	1	5	0	4	1	0	12
62713.90674795834	62717.65674795834	5.35	5.348052416658902	62725.25681583334	62719.25674795834	62719.254800375	62719.25674795834	62719.26800925	62725.25674795834	62725.268044334	6	3.6119548336573644	0.6119548336573644	0.3333660830030567	40	624.6	-0.6	-0.4999	u	1	5	0	4	0	0	12
62713.90674795834	62718.40674795834	5.35	5.348052416658902	62725.25681583334	62719.25674795834	62719.254800375	62719.25674795834	62719.26800925	62725.25674795834	62725.268044334	6	3.6119548336573644	0.6119548336573644	0.3333660830030567	40	623.69	-0.6	-0.4999	u	1	5	0	4	0	0	12
62713.90674795834	62719.15674795834	5.35	5.348052416658902	62725.25681583334	62719.25674795834	62719.254800375	62719.25674795834	62719.26800925	62725.25674795834	62725.268044334	6	3.6119548336573644	0.6119548336573644	0.3333660830030567	40	618.32	-0.6	-0.4999	u	1	5	0	4	0	0	12
62725.273690916336	62725.273690916336	5.35	5.347879042667046	62736.62375895834	62730.623690916334	62730.621569959	62730.623690916334	62730.634755167	62736.623690916334	62736.634713375	6	3.982088250661036	0.982088250661036	0.3284659589990042	40	618.02	-0.6	-0.4999	u	1	5	0	4	0	0	13
62725.273690916336	62726.023690916336	5.35	5.347879042667046	62736.62375895834	62730.623690916334	62730.621569959	62730.623690916334	62730.634755167	62736.623690916334	62736.634713375	6	3.982088250661036	0.982088250661036	0.3284659589990042	40	616.21	-0.6	-0.4999	u	1	5	0	4	0	0	13
62725.273690916336	62726.773690916336	5.35	5.347879042667046	62736.62375895834	62730.623690916334	62730.621569959	62730.623690916334	62730.634755167	62736.623690916334	62736.634713375	6	3.982088250661036	0.982088250661036	0.3284659589990042	40	613.64	-0.6	-0.4999	u	1	5	0	4	0	0	13
62725.273690916336	62727.523690916336	5.35	5.347879042667046	62736.62375895834	62730.623690916334	62730.621569959	62730.623690916334	62730.634755167	62736.623690916334	62736.634713375	6	3.982088250661036	0.982088250661036	0.3284659589990042	40	612.92	-0.6	-0.4999	u	1	5	0	4	0	0	13
62725.273690916336	62728.273690916336	5.35	5.347879042667046	62736.62375895834	62730.623690916334	62730.621569959	62730.623690916334	62730.634755167	62736.623690916334	62736.634713375	6	3.982088250661036	0.982088250661036	0.3284659589990042	40	655.1	-0.6	-0.4999	u	1	5	0	4	1	0	13
62725.273690916336	62729.023690916336	5.35	5.347879042667046	62736.62375895834	62730.623690916334	62730.621569959	62730.623690916334	62730.634755167	62736.623690916334	62736.634713375	6	3.982088250661036	0.982088250661036	0.3284659589990042	40	614.25	-0.6	-0.4999	u	1	5	0	4	0	0	13
62725.273690916336	62729.773690916336	5.35	5.347879042667046	62736.62375895834	62730.623690916334	62730.621569959	62730.623690916334	62730.634755167	62736.623690916334	62736.634713375	6	3.982088250661036	0.982088250661036	0.3284659589990042	40	617.15	-0.6	-0.4999	u	1	5	0	4	0	0	13
62725.273690916336	62730.523690916336	5.35	5.347879042667046	62736.62375895834	62730.623690916334	62730.621569959	62730.623690916334	62730.634755167	62736.623690916334	62736.634713375	6	3.982088250661036	0.982088250661036	0.3284659589990042	40	612.65	-0.6	-0.4999	u	1	5	0	4	0	0	13
62736.64000904134	62736.64000904134	5.35	5.348349375664839	62747.990078374336	62741.990009041336	62741.988358417	62741.990009041336	62742.00149125	62747.990009041336	62748.000613209	6	3.6286935426614946	0.6286935426614946	0.2779376670005149	40	613.02	-0.6	-0.4999	u	1	5	0	4	0	0	14
62736.64000904134	62737.39000904134	5.35	5.348349375664839	62747.990078374336	62741.990009041336	62741.988358417	62741.990009041336	62742.00149125	62747.990009041336	62748.000613209	6	3.6286935426614946	0.6286935426614946	0.2779376670005149	40	608.73	-0.6	-0.4999	u	1	5	0	4	0	0	14
62736.64000904134	62738.14000904134	5.35	5.348349375664839	62747.990078374336	62741.990009041336	62741.988358417	62741.990009041336	62742.00149125	62747.990009041336	62748.000613209	6	3.6286935426614946	0.6286935426614946	0.2779376670005149	40	607.25	-0.6	-0.4999	u	1	5	0	4	0	0	14
62736.64000904134	62738.89000904134	5.35	5.348349375664839	62747.990078374336	62741.990009041336	62741.988358417	62741.990009041336	62742.00149125	62747.990009041336	62748.000613209	6	3.6286935426614946	0.6286935426614946	0.2779376670005149	40	605.65	-0.6	-0.4999	u	1	5	0	4	0	0	14
62736.64000904134	62739.64000904134	5.35	5.348349375664839	62747.990078374336	62741.990009041336	62741.988358417	62741.990009041336	62742.00149125	62747.990009041336	62748.000613209	6	3.6286935426614946	0.6286935426614946	0.2779376670005149	40	654.46	-0.6	-0.4999	u	1	5	0	4	1	0	14
62736.64000904134	62740.39000904134	5.35	5.348349375664839	62747.990078374336	62741.990009041336	62741.988358417	62741.990009041336	62742.00149125	62747.990009041336	62748.000613209	6	3.6286935426614946	0.6286935426614946	0.2779376670005149	40	605.88	-0.6	-0.4999	u	1	5	0	4	0	0	14
62736.64000904134	62741.14000904134	5.35	5.348349375664839	62747.990078374336	62741.990009041336	62741.988358417	62741.990009041336	62742.00149125	62747.990009041336	62748.000613209	6	3.6286935426614946	0.6286935426614946	0.2779376670005149	40	609.91	-0.6	-0.4999	u	1	5	0	4	0	0	14
62736.64000904134	62741.89000904134	5.35	5.348349375664839	62747.990078374336	62741.990009041336	62741.988358417	62741.990009041336	62742.00149125	62747.990009041336	62748.000613209	6	3.6286935426614946	0.6286935426614946	0.2779376670005149	40	603.46	-0.6	-0.4999	u	1	5	0	4	0	0	14
62748.00664099934	62748.00664099934	5.35	5.348444667659351	62759.35671112434	62753.35664099934	62753.355085667	62753.35664099934	62753.368157084	62759.35664099934	62759.368273709	6	3.545513459663198	0.5455134596631979	0.3118118750062422	40	600.35	-0.6	-0.4999	u	1	5	0	4	0	0	15
62748.00664099934	62748.75664099934	5.35	5.348444667659351	62759.35671112434	62753.35664099934	62753.355085667	62753.35664099934	62753.368157084	62759.35664099934	62759.368273709	6	3.545513459663198	0.5455134596631979	0.3118118750062422	40	601.34	-0.6	-0.4999	u	1	5	0	4	0	0	15
62748.00664099934	62749.50664099934	5.35	5.348444667659351	62759.35671112434	62753.35664099934	62753.355085667	62753.35664099934	62753.368157084	62759.35664099934	62759.368273709	6	3.545513459663198	0.5455134596631979	0.3118118750062422	40	607.9	-0.6	-0.4999	u	1	5	0	4	0	0	15
62748.00664099934	62750.25664099934	5.35	5.348444667659351	62759.35671112434	62753.35664099934	62753.355085667	62753.35664099934	62753.368157084	62759.35664099934	62759.368273709	6	3.545513459663198	0.5455134596631979	0.3118118750062422	40	609.18	-0.6	-0.4999	u	1	5	0	4	0	0	15
62748.00664099934	62751.00664099934	5.35	5.348444667659351	62759.35671112434	62753.35664099934	62753.355085667	62753.35664099934	62753.368157084	62759.35664099934	62759.368273709	6	3.545513459663198	0.5455134596631979	0.3118118750062422	40	665.33	-0.6	-0.4999	u	1	5	0	4	1	0	15
62748.00664099934	62751.75664099934	5.35	5.348444667659351	62759.35671112434	62753.35664099934	62753.355085667	62753.35664099934	62753.368157084	62759.35664099934	62759.368273709	6	3.545513459663198	0.5455134596631979	0.3118118750062422	40	615.21	-0.6	-0.4999	u	1	5	0	4	0	0	15
62748.00664099934	62752.50664099934	5.35	5.348444667659351	62759.35671112434	62753.35664099934	62753.355085667	62753.35664099934	62753.368157084	62759.35664099934	62759.368273709	6	3.545513459663198	0.5455134596631979	0.3118118750062422	40	613.92	-0.6	-0.4999	u	1	5	0	4	0	0	15
62748.00664099934	62753.25664099934	5.35	5.348444667659351	62759.35671112434	62753.35664099934	62753.355085667	62753.35664099934	62753.368157084	62759.35664099934	62759.368273709	6	3.545513459663198	0.5455134596631979	0.3118118750062422	40	608.27	-0.6	-0.4999	u	1	5	0	4	0	0	15
62759.37421124934	62759.37421124934	5.35	5.347476125658432	62770.72428104134	62764.72421124934	62764.721687375	62764.72421124934	62764.735006792	62770.72421124934	62770.734260459	6				40	612.69	-0.6	-0.4999		3		0	3	0	0	16
62759.37421124934	62760.12421124934	5.35	5.347476125658432	62770.72428104134	62764.72421124934	62764.721687375	62764.72421124934	62764.735006792	62770.72421124934	62770.734260459	6				40	607.56	-0.6	-0.4999		3		0	3	0	0	16
62759.37421124934	62760.87421124934	5.35	5.347476125658432	62770.72428104134	62764.72421124934	62764.721687375	62764.72421124934	62764.735006792	62770.72421124934	62770.734260459	6				40	603.83	-0.6	-0.4999		3		0	3	0	0	16
62759.37421124934	62761.62421124934	5.35	5.347476125658432	62770.72428104134	62764.72421124934	62764.721687375	62764.72421124934	62764.735006792	62770.72421124934	62770.734260459	6				40	658.14	-0.6	-0.4999		3		0	3	1	0	16
62759.37421124934	62762.37421124934	5.35	5.347476125658432	62770.72428104134	62764.72421124934	62764.721687375	62764.72421124934	62764.735006792	62770.72421124934	62770.734260459	6				40	599.96	-0.6	-0.4999		3		0	3	0	0	16
62759.37421124934	62763.12421124934	5.35	5.347476125658432	62770.72428104134	62764.72421124934	62764.721687375	62764.72421124934	62764.735006792	62770.72421124934	62770.734260459	6				40	595.07	-0.6	-0.4999		3		0	3	0	0	16
62759.37421124934	62763.87421124934	5.35	5.347476125658432	62770.72428104134	62764.72421124934	62764.721687375	62764.72421124934	62764.735006792	62770.72421124934	62770.734260459	6				40	590.78	-0.6	-0.4999		3		0	3	0	0	16
62759.37421124934	62764.62421124934	5.35	5.347476125658432	62770.72428104134	62764.72421124934	62764.721687375	62764.72421124934	62764.735006792	62770.72421124934	62770.734260459	6				40	589.76	-0.6	-0.4999		3		0	3	0	0	16
62770.73990612434	62770.73990612434	5.35	5.348597750657063	62782.08997691634	62776.08990612434	62776.088503875	62776.08990612434	62776.101751167	62782.08990612434	62782.101714042	6				40	589.34	-0.6	-0.4999		3		0	2	0	0	17
62770.73990612434	62771.48990612434	5.35	5.348597750657063	62782.08997691634	62776.08990612434	62776.088503875	62776.08990612434	62776.101751167	62782.08990612434	62782.101714042	6				40	594.97	-0.6	-0.4999		3		0	2	0	0	17
62770.73990612434	62772.23990612434	5.35	5.348597750657063	62782.08997691634	62776.08990612434	62776.088503875	62776.08990612434	62776.101751167	62782.08990612434	62782.101714042	6				40	638.67	-0.6	-0.4999		3		0	2	1	0	17
62770.73990612434	62772.98990612434	5.35	5.348597750657063	62782.08997691634	62776.08990612434	62776.088503875	62776.08990612434	62776.101751167	62782.08990612434	62782.101714042	6				40	587.1	-0.6	-0.4999		3		0	2	0	0	17
62770.73990612434	62773.73990612434	5.35	5.348597750657063	62782.08997691634	62776.08990612434	62776.088503875	62776.08990612434	62776.101751167	62782.08990612434	62782.101714042	6				40	585.22	-0.6	-0.4999		3		0	2	0	0	17
62770.73990612434	62774.48990612434	5.35	5.348597750657063	62782.08997691634	62776.08990612434	62776.088503875	62776.08990612434	62776.101751167	62782.08990612434	62782.101714042	6				40	582.03	-0.6	-0.4999		3		0	2	0	0	17
62770.73990612434	62775.23990612434	5.35	5.348597750657063	62782.08997691634	62776.08990612434	62776.088503875	62776.08990612434	62776.101751167	62782.08990612434	62782.101714042	6				40	576.2	-0.6	-0.4999		3		0	2	0	0	17
62770.73990612434	62775.98990612434	5.35	5.348597750657063	62782.08997691634	62776.08990612434	62776.088503875	62776.08990612434	62776.101751167	62782.08990612434	62782.101714042	6				40	571.71	-0.6	-0.4999		3		0	2	0	0	17
62782.10716454134	62782.10716454134	5.35	5.348173750659043	62793.45723533334	62787.45716454134	62787.455338292	62787.45716454134	62787.468302875	62793.45716454134	62793.468315584	6				40	571.09	-0.6	-0.4999		3		1	5	0	0	18
62782.10716454134	62782.85716454134	5.35	5.348173750659043	62793.45723533334	62787.45716454134	62787.455338292	62787.45716454134	62787.468302875	62793.45716454134	62793.468315584	6				40	576.55	-0.6	-0.4999		3		1	5	0	0	18
62782.10716454134	62783.60716454134	5.35	5.348173750659043	62793.45723533334	62787.45716454134	62787.455338292	62787.45716454134	62787.468302875	62793.45716454134	62793.468315584	6				40	576.7	-0.6	-0.4999		3		1	5	0	0	18
62782.10716454134	62784.35716454134	5.35	5.348173750659043	62793.45723533334	62787.45716454134	62787.455338292	62787.45716454134	62787.468302875	62793.45716454134	62793.468315584	6				40	579.3	-0.6	-0.4999		3		1	5	0	0	18
62782.10716454134	62785.10716454134	5.35	5.348173750659043	62793.45723533334	62787.45716454134	62787.455338292	62787.45716454134	62787.468302875	62793.45716454134	62793.468315584	6				40	580.73	-0.6	-0.4999		3		1	5	0	0	18
62782.10716454134	62785.85716454134	5.35	5.348173750659043	62793.45723533334	62787.45716454134	62787.455338292	62787.45716454134	62787.468302875	62793.45716454134	62793.468315584	6				40	649.95	-0.6	-0.4999		3		1	5	1	0	18
62782.10716454134	62786.60716454134	5.35	5.348173750659043	62793.45723533334	62787.45716454134	62787.455338292	62787.45716454134	62787.468302875	62793.45716454134	62793.468315584	6				40	577.51	-0.6	-0.4999		3		1	5	0	0	18
62782.10716454134	62787.35716454134	5.35	5.348173750659043	62793.45723533334	62787.45716454134	62787.455338292	62787.45716454134	62787.468302875	62793.45716454134	62793.468315584	6				40	582.76	-0.6	-0.4999		3		1	5	0	0	18
62793.47379791634	62793.47379791634	5.35	5.348346542661602	62804.82386916634	62798.82379791634	62798.822144459	62798.82379791634	62798.83549875	62804.82379791634	62804.835172167	6				40	584.72	-0.6	-0.4999		3		1	6	0	0	19
62793.47379791634	62794.22379791634	5.35	5.348346542661602	62804.82386916634	62798.82379791634	62798.822144459	62798.82379791634	62798.83549875	62804.82379791634	62804.835172167	6				40	584.4	-0.6	-0.4999		3		1	6	0	0	19
62793.47379791634	62794.97379791634	5.35	5.348346542661602	62804.82386916634	62798.82379791634	62798.822144459	62798.82379791634	62798.83549875	62804.82379791634	62804.835172167	6				40	589.58	-0.6	-0.4999		3		1	6	0	0	19
62793.47379791634	62795.72379791634	5.35	5.348346542661602	62804.82386916634	62798.82379791634	62798.822144459	62798.82379791634	62798.83549875	62804.82379791634	62804.835172167	6				40	593.22	-0.6	-0.4999		3		1	6	0	0	19
62793.47379791634	62796.47379791634	5.35	5.348346542661602	62804.82386916634	62798.82379791634	62798.822144459	62798.82379791634	62798.83549875	62804.82379791634	62804.835172167	6				40	587.08	-0.6	-0.4999		3		1	6	0	0	19
62793.47379791634	62797.22379791634	5.35	5.348346542661602	62804.82386916634	62798.82379791634	62798.822144459	62798.82379791634	62798.83549875	62804.82379791634	62804.835172167	6				40	586.68	-0.6	-0.4999		3		1	6	0	0	19
62793.47379791634	62797.97379791634	5.35	5.348346542661602	62804.82386916634	62798.82379791634	62798.822144459	62798.82379791634	62798.83549875	62804.82379791634	62804.835172167	6				40	651.57	-0.6	-0.4999		3		1	6	1	0	19
62793.47379791634	62798.72379791634	5.35	5.348346542661602	62804.82386916634	62798.82379791634	62798.822144459	62798.82379791634	62798.83549875	62804.82379791634	62804.835172167	6				40	589.58	-0.6	-0.4999		3		1	6	0	0	19
62804.84043174934	62804.84043174934	5.35	5.348342084660544	62816.19050412434	62810.19043174934	62810.188773834	62810.19043174934	62810.201839667	62816.19043174934	62816.201956459	6				40	588.18	-0.6	-0.4999		4		2	0	0	0	20
62804.84043174934	62805.59043174934	5.35	5.348342084660544	62816.19050412434	62810.19043174934	62810.188773834	62810.19043174934	62810.201839667	62816.19043174934	62816.201956459	6				40	585.29	-0.6	-0.4999		4		2	0	0	0	20
62804.84043174934	62806.34043174934	5.35	5.348342084660544	62816.19050412434	62810.19043174934	62810.188773834	62810.19043174934	62810.201839667	62816.19043174934	62816.201956459	6				40	593.54	-0.6	-0.4999		4		2	0	0	0	20
62804.84043174934	62807.09043174934	5.35	5.348342084660544	62816.19050412434	62810.19043174934	62810.188773834	62810.19043174934	62810.201839667	62816.19043174934	62816.201956459	6				40	582.47	-0.6	-0.4999		4		2	0	0	0	20
62804.84043174934	62807.84043174934	5.35	5.348342084660544	62816.19050412434	62810.19043174934	62810.188773834	62810.19043174934	62810.201839667	62816.19043174934	62816.201956459	6				40	581.12	-0.6	-0.4999		4		2	0	0	0	20
62804.84043174934	62808.59043174934	5.35	5.348342084660544	62816.19050412434	62810.19043174934	62810.188773834	62810.19043174934	62810.201839667	62816.19043174934	62816.201956459	6				40	580.34	-0.6	-0.4999		4		2	0	0	0	20
62804.84043174934	62809.34043174934	5.35	5.348342084660544	62816.19050412434	62810.19043174934	62810.188773834	62810.19043174934	62810.201839667	62816.19043174934	62816.201956459	6				40	581.53	-0.6	-0.4999		4		2	0	0	0	20
62804.84043174934	62810.09043174934	5.35	5.348342084660544	62816.19050412434	62810.19043174934	62810.188773834	62810.19043174934	62810.201839667	62816.19043174934	62816.201956459	6				40	579.65	-0.6	-0.4999		4		2	0	0	0	20
62816.20737924934	62816.20737924934	5.35	5.348124917662062	62827.55745133334	62821.55737924934	62821.555504167	62821.55737924934	62821.568431334	62827.55737924934	62827.568630042	6				40	581.33	-0.6	-0.4999		3		1	5	0	0	21
62816.20737924934	62816.95737924934	5.35	5.348124917662062	62827.55745133334	62821.55737924934	62821.555504167	62821.55737924934	62821.568431334	62827.55737924934	62827.568630042	6				40	583.14	-0.6	-0.4999		3		1	5	0	0	21
62816.20737924934	62817.70737924934	5.35	5.348124917662062	62827.55745133334	62821.55737924934	62821.555504167	62821.55737924934	62821.568431334	62827.55737924934	62827.568630042	6				40	581.67	-0.6	-0.4999		3		1	5	0	0	21
62816.20737924934	62818.45737924934	5.35	5.348124917662062	62827.55745133334	62821.55737924934	62821.555504167	62821.55737924934	62821.568431334	62827.55737924934	62827.568630042	6				40	585.76	-0.6	-0.4999		3		1	5	0	0	21
62816.20737924934	62819.20737924934	5.35	5.348124917662062	62827.55745133334	62821.55737924934	62821.555504167	62821.55737924934	62821.568431334	62827.55737924934	62827.568630042	6				40	582.9	-0.6	-0.4999		3		1	5	0	0	21
62816.20737924934	62819.95737924934	5.35	5.348124917662062	62827.55745133334	62821.55737924934	62821.555504167	62821.55737924934	62821.568431334	62827.55737924934	62827.568630042	6				40	656.28	-0.6	-0.4999		3		1	5	1	0	21
62816.20737924934	62820.70737924934	5.35	5.348124917662062	62827.55745133334	62821.55737924934	62821.555504167	62821.55737924934	62821.568431334	62827.55737924934	62827.568630042	6				40	581.19	-0.6	-0.4999		3		1	5	0	0	21
62816.20737924934	62821.45737924934	5.35	5.348124917662062	62827.55745133334	62821.55737924934	62821.555504167	62821.55737924934	62821.568431334	62827.55737924934	62827.568630042	6				40	582.5	-0.6	-0.4999		3		1	5	0	0	21
62827.574013958336	62827.574013958336	5.35	5.348246500667301	62838.92408679134	62832.924013958334	62832.922260459	62832.924013958334	62832.9353815	62838.924013958334	62838.935471084	6				40	584.09	-0.6	-0.4999		3		1	5	0	0	22
62827.574013958336	62828.324013958336	5.35	5.348246500667301	62838.92408679134	62832.924013958334	62832.922260459	62832.924013958334	62832.9353815	62838.924013958334	62838.935471084	6				40	583.69	-0.6	-0.4999		3		1	5	0	0	22
62827.574013958336	62829.074013958336	5.35	5.348246500667301	62838.92408679134	62832.924013958334	62832.922260459	62832.924013958334	62832.9353815	62838.924013958334	62838.935471084	6				40	584.02	-0.6	-0.4999		3		1	5	0	0	22
62827.574013958336	62829.824013958336	5.35	5.348246500667301	62838.92408679134	62832.924013958334	62832.922260459	62832.924013958334	62832.9353815	62838.924013958334	62838.935471084	6				40	588.43	-0.6	-0.4999		3		1	5	0	0	22
62827.574013958336	62830.574013958336	5.35	5.348246500667301	62838.92408679134	62832.924013958334	62832.922260459	62832.924013958334	62832.9353815	62838.924013958334	62838.935471084	6				40	590.35	-0.6	-0.4999		3		1	5	0	0	22
62827.574013958336	62831.324013958336	5.35	5.348246500667301	62838.92408679134	62832.924013958334	62832.922260459	62832.924013958334	62832.9353815	62838.924013958334	62838.935471084	6				40	652.8	-0.6	-0.4999		3		1	5	1	0	22
62827.574013958336	62832.074013958336	5.35	5.348246500667301	62838.92408679134	62832.924013958334	62832.922260459	62832.924013958334	62832.9353815	62838.924013958334	62838.935471084	6				40	593.76	-0.6	-0.4999		3		1	5	0	0	22
62827.574013958336	62832.824013958336	5.35	5.348246500667301	62838.92408679134	62832.924013958334	62832.922260459	62832.924013958334	62832.9353815	62838.924013958334	62838.935471084	6				40	602.85	-0.6	-0.4999		3		1	5	0	0	22
62838.94096191634	62838.94096191634	5.35	5.348133875661006	62850.29103458334	62844.29096191634	62844.289095792	62844.29096191634	62844.302110959	62850.29096191634	62850.302193584	6				40	602.75	-0.6	-0.4999		3		1	6	0	0	23
62838.94096191634	62839.69096191634	5.35	5.348133875661006	62850.29103458334	62844.29096191634	62844.289095792	62844.29096191634	62844.302110959	62850.29096191634	62850.302193584	6				40	607.2	-0.6	-0.4999		3		1	6	0	0	23
62838.94096191634	62840.44096191634	5.35	5.348133875661006	62850.29103458334	62844.29096191634	62844.289095792	62844.29096191634	62844.302110959	62850.29096191634	62850.302193584	6				40	607.19	-0.6	-0.4999		3		1	6	0	0	23
62838.94096191634	62841.19096191634	5.35	5.348133875661006	62850.29103458334	62844.29096191634	62844.289095792	62844.29096191634	62844.302110959	62850.29096191634	62850.302193584	6				40	615.14	-0.6	-0.4999		3		1	6	0	0	23
62838.94096191634	62841.94096191634	5.35	5.348133875661006	62850.29103458334	62844.29096191634	62844.289095792	62844.29096191634	62844.302110959	62850.29096191634	62850.302193584	6				40	621.28	-0.6	-0.4999		3		1	6	0	0	23
62838.94096191634	62842.69096191634	5.35	5.348133875661006	62850.29103458334	62844.29096191634	62844.289095792	62844.29096191634	62844.302110959	62850.29096191634	62850.302193584	6				40	617.7	-0.6	-0.4999		3		1	6	0	0	23
62838.94096191634	62843.44096191634	5.35	5.348133875661006	62850.29103458334	62844.29096191634	62844.289095792	62844.29096191634	62844.302110959	62850.29096191634	62850.302193584	6				40	657.41	-0.6	-0.4999		3		1	6	1	0	23
62838.94096191634	62844.19096191634	5.35	5.348133875661006	62850.29103458334	62844.29096191634	62844.289095792	62844.29096191634	62844.302110959	62850.29096191634	62850.302193584	6				40	614.98	-0.6	-0.4999		3		1	6	0	0	23
62850.30759720834	62850.30759720834	5.35	5.34809562566079	62861.65767083334	62855.65759720834	62855.655692834	62855.65759720834	62855.668860584	62861.65759720834	62861.668944375	6				40	619.73	-0.6	-0.4999		3		1	4	0	0	24
62850.30759720834	62851.05759720834	5.35	5.34809562566079	62861.65767083334	62855.65759720834	62855.655692834	62855.65759720834	62855.668860584	62861.65759720834	62861.668944375	6				40	614.45	-0.6	-0.4999		3		1	4	0	0	24
62850.30759720834	62851.80759720834	5.35	5.34809562566079	62861.65767083334	62855.65759720834	62855.655692834	62855.65759720834	62855.668860584	62861.65759720834	62861.668944375	6				40	620.92	-0.6	-0.4999		3		1	4	0	0	24
62850.30759720834	62852.55759720834	5.35	5.34809562566079	62861.65767083334	62855.65759720834	62855.655692834	62855.65759720834	62855.668860584	62861.65759720834	62861.668944375	6				40	616.35	-0.6	-0.4999		3		1	4	0	0	24
62850.30759720834	62853.30759720834	5.35	5.34809562566079	62861.65767083334	62855.65759720834	62855.655692834	62855.65759720834	62855.668860584	62861.65759720834	62861.668944375	6				40	638.42	-0.6	-0.4999		3		1	4	1	0	24
62850.30759720834	62854.05759720834	5.35	5.34809562566079	62861.65767083334	62855.65759720834	62855.655692834	62855.65759720834	62855.668860584	62861.65759720834	62861.668944375	6				40	616.96	-0.6	-0.4999		3		1	4	0	0	24
62850.30759720834	62854.80759720834	5.35	5.34809562566079	62861.65767083334	62855.65759720834	62855.655692834	62855.65759720834	62855.668860584	62861.65759720834	62861.668944375	6				40	616.48	-0.6	-0.4999		3		1	4	0	0	24
62850.30759720834	62855.55759720834	5.35	5.34809562566079	62861.65767083334	62855.65759720834	62855.655692834	62855.65759720834	62855.668860584	62861.65759720834	62861.668944375	6				40	611.77	-0.6	-0.4999		3		1	4	0	0	24
62861.67423345834	62861.67423345834	5.35	5.34831483365997	62873.024307291336	62867.02423345834	62867.022548292	62867.02423345834	62867.035648584	62873.02423345834	62873.035578125	6				40	615.25	-0.6	-0.4999		3		1	5	0	0	25
62861.67423345834	62862.42423345834	5.35	5.34831483365997	62873.024307291336	62867.02423345834	62867.022548292	62867.02423345834	62867.035648584	62873.02423345834	62873.035578125	6				40	611.37	-0.6	-0.4999		3		1	5	0	0	25
62861.67423345834	62863.17423345834	5.35	5.34831483365997	62873.024307291336	62867.02423345834	62867.022548292	62867.02423345834	62867.035648584	62873.02423345834	62873.035578125	6				40	616.08	-0.6	-0.4999		3		1	5	0	0	25
62861.67423345834	62863.92423345834	5.35	5.34831483365997	62873.024307291336	62867.02423345834	62867.022548292	62867.02423345834	62867.035648584	62873.02423345834	62873.035578125	6				40	615.58	-0.6	-0.4999		3		1	5	0	0	25
62861.67423345834	62864.67423345834	5.35	5.34831483365997	62873.024307291336	62867.02423345834	62867.022548292	62867.02423345834	62867.035648584	62873.02423345834	62873.035578125	6				40	621.05	-0.6	-0.4999		3		1	5	0	0	25
62861.67423345834	62865.42423345834	5.35	5.34831483365997	62873.024307291336	62867.02423345834	62867.022548292	62867.02423345834	62867.035648584	62873.02423345834	62873.035578125	6				40	644.34	-0.6	-0.4999		3		1	5	1	0	25
62861.67423345834	62866.17423345834	5.35	5.34831483365997	62873.024307291336	62867.02423345834	62867.022548292	62867.02423345834	62867.035648584	62873.02423345834	62873.035578125	6				40	624.98	-0.6	-0.4999		3		1	5	0	0	25
62861.67423345834	62866.92423345834	5.35	5.34831483365997	62873.024307291336	62867.02423345834	62867.022548292	62867.02423345834	62867.035648584	62873.02423345834	62873.035578125	6				40	627.41	-0.6	-0.4999		3		1	5	0	0	25
62873.04086991634	62873.04086991634	5.35	5.348255083663389	62884.39094445834	62878.39086991634	62878.389125	62878.39086991634	62878.402364875	62884.39086991634	62884.402650209	6				40	625.76	-0.6	-0.4999		3		1	6	0	0	26
62873.04086991634	62873.79086991634	5.35	5.348255083663389	62884.39094445834	62878.39086991634	62878.389125	62878.39086991634	62878.402364875	62884.39086991634	62884.402650209	6				40	624.87	-0.6	-0.4999		3		1	6	0	0	26
62873.04086991634	62874.54086991634	5.35	5.348255083663389	62884.39094445834	62878.39086991634	62878.389125	62878.39086991634	62878.402364875	62884.39086991634	62884.402650209	6				40	620.83	-0.6	-0.4999		3		1	6	0	0	26
62873.04086991634	62875.29086991634	5.35	5.348255083663389	62884.39094445834	62878.39086991634	62878.389125	62878.39086991634	62878.402364875	62884.39086991634	62884.402650209	6				40	624.5	-0.6	-0.4999		3		1	6	0	0	26
62873.04086991634	62876.04086991634	5.35	5.348255083663389	62884.39094445834	62878.39086991634	62878.389125	62878.39086991634	62878.402364875	62884.39086991634	62884.402650209	6				40	622.7	-0.6	-0.4999		3		1	6	0	0	26
62873.04086991634	62876.79086991634	5.35	5.348255083663389	62884.39094445834	62878.39086991634	62878.389125	62878.39086991634	62878.402364875	62884.39086991634	62884.402650209	6				40	618.95	-0.6	-0.4999		3		1	6	0	0	26
62873.04086991634	62877.54086991634	5.35	5.348255083663389	62884.39094445834	62878.39086991634	62878.389125	62878.39086991634	62878.402364875	62884.39086991634	62884.402650209	6				40	651.82	-0.6	-0.4999		3		1	6	1	0	26
62873.04086991634	62878.29086991634	5.35	5.348255083663389	62884.39094445834	62878.39086991634	62878.389125	62878.39086991634	62878.402364875	62884.39086991634	62884.402650209	6				40	621.01	-0.6	-0.4999		3		1	6	0	0	26
62884.408132083336	62884.408132083336	5.35	5.347844958661881	62895.75820654134	62889.758132083334	62889.755977042	62889.758132083334	62889.769045292	62895.758132083334	62895.769396084	6				40	622.16	-0.6	-0.4999		3		1	4	0	0	27
62884.408132083336	62885.158132083336	5.35	5.347844958661881	62895.75820654134	62889.758132083334	62889.755977042	62889.758132083334	62889.769045292	62895.758132083334	62895.769396084	6				40	616.23	-0.6	-0.4999		3		1	4	0	0	27
62884.408132083336	62885.908132083336	5.35	5.347844958661881	62895.75820654134	62889.758132083334	62889.755977042	62889.758132083334	62889.769045292	62895.758132083334	62895.769396084	6				40	618.06	-0.6	-0.4999		3		1	4	0	0	27
62884.408132083336	62886.658132083336	5.35	5.347844958661881	62895.75820654134	62889.758132083334	62889.755977042	62889.758132083334	62889.769045292	62895.758132083334	62895.769396084	6				40	617.85	-0.6	-0.4999		3		1	4	0	0	27
62884.408132083336	62887.408132083336	5.35	5.347844958661881	62895.75820654134	62889.758132083334	62889.755977042	62889.758132083334	62889.769045292	62895.758132083334	62895.769396084	6				40	664.2	-0.6	-0.4999		3		1	4	1	0	27
62884.408132083336	62888.158132083336	5.35	5.347844958661881	62895.75820654134	62889.758132083334	62889.755977042	62889.758132083334	62889.769045292	62895.758132083334	62895.769396084	6				40	615.38	-0.6	-0.4999		3		1	4	0	0	27
62884.408132083336	62888.908132083336	5.35	5.347844958661881	62895.75820654134	62889.758132083334	62889.755977042	62889.758132083334	62889.769045292	62895.758132083334	62895.769396084	6				40	613.78	-0.6	-0.4999		3		1	4	0	0	27
62884.408132083336	62889.658132083336	5.35	5.347844958661881	62895.75820654134	62889.758132083334	62889.755977042	62889.758132083334	62889.769045292	62895.758132083334	62895.769396084	6				40	613.42	-0.6	-0.4999		3		1	4	0	0	27
62895.77476916634	62895.77476916634	5.35	5.347922208660748	62907.12484549934	62901.12476916634	62901.122691375	62901.12476916634	62901.135782125	62907.12476916634	62907.135955709	6				40	614.42	-0.6	-0.4999		3		0	3	0	0	28
62895.77476916634	62896.52476916634	5.35	5.347922208660748	62907.12484549934	62901.12476916634	62901.122691375	62901.12476916634	62901.135782125	62907.12476916634	62907.135955709	6				40	614.42	-0.6	-0.4999		3		0	3	0	0	28
62895.77476916634	62897.27476916634	5.35	5.347922208660748	62907.12484549934	62901.12476916634	62901.122691375	62901.12476916634	62901.135782125	62907.12476916634	62907.135955709	6				40	610.58	-0.6	-0.4999		3		0	3	0	0	28
62895.77476916634	62898.02476916634	5.35	5.347922208660748	62907.12484549934	62901.12476916634	62901.122691375	62901.12476916634	62901.135782125	62907.12476916634	62907.135955709	6				40	659.36	-0.6	-0.4999		3		0	3	1	0	28
62895.77476916634	62898.77476916634	5.35	5.347922208660748	62907.12484549934	62901.12476916634	62901.122691375	62901.12476916634	62901.135782125	62907.12476916634	62907.135955709	6				40	616.3	-0.6	-0.4999		3		0	3	0	0	28
62895.77476916634	62899.52476916634	5.35	5.347922208660748	62907.12484549934	62901.12476916634	62901.122691375	62901.12476916634	62901.135782125	62907.12476916634	62907.135955709	6				40	615.19	-0.6	-0.4999		3		0	3	0	0	28
62895.77476916634	62900.27476916634	5.35	5.347922208660748	62907.12484549934	62901.12476916634	62901.122691375	62901.12476916634	62901.135782125	62907.12476916634	62907.135955709	6				40	619.89	-0.6	-0.4999		3		0	3	0	0	28
62895.77476916634	62901.02476916634	5.35	5.347922208660748	62907.12484549934	62901.12476916634	62901.122691375	62901.12476916634	62901.135782125	62907.12476916634	62907.135955709	6				40	616.2	-0.6	-0.4999		3		0	3	0	0	28
62907.14172062434	62907.14172062434	5.35	5.347546750657784	62918.49179908334	62912.49172062434	62912.489267375	62912.49172062434	62912.502601834	62918.49172062434	62918.502714709	6				40	614.34	-0.6	-0.4999		3		0	2	0	0	29
62907.14172062434	62907.89172062434	5.35	5.347546750657784	62918.49179908334	62912.49172062434	62912.489267375	62912.49172062434	62912.502601834	62918.49172062434	62918.502714709	6				40	614.25	-0.6	-0.4999		3		0	2	0	0	29
62907.14172062434	62908.64172062434	5.35	5.347546750657784	62918.49179908334	62912.49172062434	62912.489267375	62912.49172062434	62912.502601834	62918.49172062434	62918.502714709	6				40	650.02	-0.6	-0.4999		3		0	2	1	0	29
62907.14172062434	62909.39172062434	5.35	5.347546750657784	62918.49179908334	62912.49172062434	62912.489267375	62912.49172062434	62912.502601834	62918.49172062434	62918.502714709	6				40	617.83	-0.6	-0.4999		3		0	2	0	0	29
62907.14172062434	62910.14172062434	5.35	5.347546750657784	62918.49179908334	62912.49172062434	62912.489267375	62912.49172062434	62912.502601834	62918.49172062434	62918.502714709	6				40	618.32	-0.6	-0.4999		3		0	2	0	0	29
62907.14172062434	62910.89172062434	5.35	5.347546750657784	62918.49179908334	62912.49172062434	62912.489267375	62912.49172062434	62912.502601834	62918.49172062434	62918.502714709	6				40	626.69	-0.6	-0.4999		3		0	2	0	0	29
62907.14172062434	62911.64172062434	5.35	5.347546750657784	62918.49179908334	62912.49172062434	62912.489267375	62912.49172062434	62912.502601834	62918.49172062434	62918.502714709	6				40	620.43	-0.6	-0.4999		3		0	2	0	0	29
62907.14172062434	62912.39172062434	5.35	5.347546750657784	62918.49179908334	62912.49172062434	62912.489267375	62912.49172062434	62912.502601834	62918.49172062434	62918.502714709	6				40	621.85	-0.6	-0.4999		3		0	2	0	0	29
62918.50804916634	62918.50804916634	5.35	5.348199250664038	62929.85812862434	62923.85804916634	62923.856248417	62923.85804916634	62923.869374959	62929.85804916634	62929.86938475	6				40	620.43	-0.6	-0.4999		3		0	3	0	0	30
62918.50804916634	62919.25804916634	5.35	5.348199250664038	62929.85812862434	62923.85804916634	62923.856248417	62923.85804916634	62923.869374959	62929.85804916634	62929.86938475	6				40	620.23	-0.6	-0.4999		3		0	3	0	0	30
62918.50804916634	62920.00804916634	5.35	5.348199250664038	62929.85812862434	62923.85804916634	62923.856248417	62923.85804916634	62923.869374959	62929.85804916634	62929.86938475	6				40	621.37	-0.6	-0.4999		3		0	3	0	0	30
62918.50804916634	62920.75804916634	5.35	5.348199250664038	62929.85812862434	62923.85804916634	62923.856248417	62923.85804916634	62923.869374959	62929.85804916634	62929.86938475	6				40	665.59	-0.6	-0.4999		3		0	3	1	0	30
62918.50804916634	62921.50804916634	5.35	5.348199250664038	62929.85812862434	62923.85804916634	62923.856248417	62923.85804916634	62923.869374959	62929.85804916634	62929.86938475	6				40	623.56	-0.6	-0.4999		3		0	3	0	0	30
62918.50804916634	62922.25804916634	5.35	5.348199250664038	62929.85812862434	62923.85804916634	62923.856248417	62923.85804916634	62923.869374959	62929.85804916634	62929.86938475	6				40	617.57	-0.6	-0.4999		3		0	3	0	0	30
62918.50804916634	62923.00804916634	5.35	5.348199250664038	62929.85812862434	62923.85804916634	62923.856248417	62923.85804916634	62923.869374959	62929.85804916634	62929.86938475	6				40	620.83	-0.6	-0.4999		3		0	3	0	0	30
62918.50804916634	62923.75804916634	5.35	5.348199250664038	62929.85812862434	62923.85804916634	62923.856248417	62923.85804916634	62923.869374959	62929.85804916634	62929.86938475	6				40	620.29	-0.6	-0.4999		3		0	3	0	0	30
62929.87469124934	62929.87469124934	5.35	5.348136167660414	62941.22477083334	62935.224691249336	62935.222827417	62935.224691249336	62935.235219459	62941.224691249336	62941.236215292	6				40	623.0	-0.6	-0.4999		3		0	2	0	0	31
62929.87469124934	62930.62469124934	5.35	5.348136167660414	62941.22477083334	62935.224691249336	62935.222827417	62935.224691249336	62935.235219459	62941.224691249336	62941.236215292	6				40	627.8	-0.6	-0.4999		3		0	2	0	0	31
62929.87469124934	62931.37469124934	5.35	5.348136167660414	62941.22477083334	62935.224691249336	62935.222827417	62935.224691249336	62935.235219459	62941.224691249336	62941.236215292	6				40	655.53	-0.6	-0.4999		3		0	2	1	0	31
62929.87469124934	62932.12469124934	5.35	5.348136167660414	62941.22477083334	62935.224691249336	62935.222827417	62935.224691249336	62935.235219459	62941.224691249336	62941.236215292	6				40	633.48	-0.6	-0.4999		3		0	2	0	0	31
62929.87469124934	62932.87469124934	5.35	5.348136167660414	62941.22477083334	62935.224691249336	62935.222827417	62935.224691249336	62935.235219459	62941.224691249336	62941.236215292	6				40	627.14	-0.6	-0.4999		3		0	2	0	0	31
62929.87469124934	62933.62469124934	5.35	5.348136167660414	62941.22477083334	62935.224691249336	62935.222827417	62935.224691249336	62935.235219459	62941.224691249336	62941.236215292	6				40	625.87	-0.6	-0.4999		3		0	2	0	0	31
62929.87469124934	62934.37469124934	5.35	5.348136167660414	62941.22477083334	62935.224691249336	62935.222827417	62935.224691249336	62935.235219459	62941.224691249336	62941.236215292	6				40	629.44	-0.6	-0.4999		3		0	2	0	0	31
62929.87469124934	62935.12469124934	5.35	5.348136167660414	62941.22477083334	62935.224691249336	62935.222827417	62935.224691249336	62935.235219459	62941.224691249336	62941.236215292	6				40	626.73	-0.6	-0.4999		3		0	2	0	0	31
62941.24164595834	62941.24164595834	5.35	5.348040333657991	62952.59172604134	62946.59164595834	62946.589686292	62946.59164595834	62946.602814625	62952.59164595834	62952.602807792	6				40	628.53	-0.6	-0.4999		3		1	4	0	0	32
62941.24164595834	62941.99164595834	5.35	5.348040333657991	62952.59172604134	62946.59164595834	62946.589686292	62946.59164595834	62946.602814625	62952.59164595834	62952.602807792	6				40	631.02	-0.6	-0.4999		3		1	4	0	0	32
62941.24164595834	62942.74164595834	5.35	5.348040333657991	62952.59172604134	62946.59164595834	62946.589686292	62946.59164595834	62946.602814625	62952.59164595834	62952.602807792	6				40	630.22	-0.6	-0.4999		3		1	4	0	0	32
62941.24164595834	62943.49164595834	5.35	5.348040333657991	62952.59172604134	62946.59164595834	62946.589686292	62946.59164595834	62946.602814625	62952.59164595834	62952.602807792	6				40	636.35	-0.6	-0.4999		3		1	4	0	0	32
62941.24164595834	62944.24164595834	5.35	5.348040333657991	62952.59172604134	62946.59164595834	62946.589686292	62946.59164595834	62946.602814625	62952.59164595834	62952.602807792	6				40	668.58	-0.6	-0.4999		3		1	4	1	0	32
62941.24164595834	62944.99164595834	5.35	5.348040333657991	62952.59172604134	62946.59164595834	62946.589686292	62946.59164595834	62946.602814625	62952.59164595834	62952.602807792	6				40	636.89	-0.6	-0.4999		3		1	4	0	0	32
62941.24164595834	62945.74164595834	5.35	5.348040333657991	62952.59172604134	62946.59164595834	62946.589686292	62946.59164595834	62946.602814625	62952.59164595834	62952.602807792	6				40	633.68	-0.6	-0.4999		3		1	4	0	0	32
62941.24164595834	62946.49164595834	5.35	5.348040333657991	62952.59172604134	62946.59164595834	62946.589686292	62946.59164595834	62946.602814625	62952.59164595834	62952.602807792	6				40	643.72	-0.6	-0.4999		3		1	4	0	0	32
62952.608288666335	62952.608288666335	5.35	5.348123292664241	62963.95836895834	62957.958288666334	62957.956411959	62957.958288666334	62957.969484875	62963.958288666334	62963.969505	6				40	639.37	-0.6	-0.4999		3		1	4	0	0	33
62952.608288666335	62953.358288666335	5.35	5.348123292664241	62963.95836895834	62957.958288666334	62957.956411959	62957.958288666334	62957.969484875	62963.958288666334	62963.969505	6				40	637.55	-0.6	-0.4999		3		1	4	0	0	33
62952.608288666335	62954.108288666335	5.35	5.348123292664241	62963.95836895834	62957.958288666334	62957.956411959	62957.958288666334	62957.969484875	62963.958288666334	62963.969505	6				40	638.77	-0.6	-0.4999		3		1	4	0	0	33
62952.608288666335	62954.858288666335	5.35	5.348123292664241	62963.95836895834	62957.958288666334	62957.956411959	62957.958288666334	62957.969484875	62963.958288666334	62963.969505	6				40	638.31	-0.6	-0.4999		3		1	4	0	0	33
62952.608288666335	62955.608288666335	5.35	5.348123292664241	62963.95836895834	62957.958288666334	62957.956411959	62957.958288666334	62957.969484875	62963.958288666334	62963.969505	6				40	663.43	-0.6	-0.4999		3		1	4	1	0	33
62952.608288666335	62956.358288666335	5.35	5.348123292664241	62963.95836895834	62957.958288666334	62957.956411959	62957.958288666334	62957.969484875	62963.958288666334	62963.969505	6				40	646.63	-0.6	-0.4999		3		1	4	0	0	33
62952.608288666335	62957.108288666335	5.35	5.348123292664241	62963.95836895834	62957.958288666334	62957.956411959	62957.958288666334	62957.969484875	62963.958288666334	62963.969505	6				40	638.73	-0.6	-0.4999		3		1	4	0	0	33
62952.608288666335	62957.858288666335	5.35	5.348123292664241	62963.95836895834	62957.958288666334	62957.956411959	62957.958288666334	62957.969484875	62963.958288666334	62963.969505	6				40	635.55	-0.6	-0.4999		3		1	4	0	0	33
62963.97461908334	62963.97461908334	5.35	5.348601416662859	62975.32469849934	62969.32461908334	62969.3232205	62969.32461908334	62969.336215625	62975.32461908334	62975.336270917	6				40	634.48	-0.6	-0.4999		3		1	5	0	0	34
62963.97461908334	62964.72461908334	5.35	5.348601416662859	62975.32469849934	62969.32461908334	62969.3232205	62969.32461908334	62969.336215625	62975.32461908334	62975.336270917	6				40	637.18	-0.6	-0.4999		3		1	5	0	0	34
62963.97461908334	62965.47461908334	5.35	5.348601416662859	62975.32469849934	62969.32461908334	62969.3232205	62969.32461908334	62969.336215625	62975.32461908334	62975.336270917	6				40	641.6	-0.6	-0.4999		3		1	5	0	0	34
62963.97461908334	62966.22461908334	5.35	5.348601416662859	62975.32469849934	62969.32461908334	62969.3232205	62969.32461908334	62969.336215625	62975.32461908334	62975.336270917	6				40	644.38	-0.6	-0.4999		3		1	5	0	0	34
62963.97461908334	62966.97461908334	5.35	5.348601416662859	62975.32469849934	62969.32461908334	62969.3232205	62969.32461908334	62969.336215625	62975.32461908334	62975.336270917	6				40	639.8	-0.6	-0.4999		3		1	5	0	0	34
62963.97461908334	62967.72461908334	5.35	5.348601416662859	62975.32469849934	62969.32461908334	62969.3232205	62969.32461908334	62969.336215625	62975.32461908334	62975.336270917	6				40	671.0	-0.6	-0.4999		3		1	5	1	0	34
62963.97461908334	62968.47461908334	5.35	5.348601416662859	62975.32469849934	62969.32461908334	62969.3232205	62969.32461908334	62969.336215625	62975.32461908334	62975.336270917	6				40	638.91	-0.6	-0.4999		3		1	5	0	0	34
62963.97461908334	62969.22461908334	5.35	5.348601416662859	62975.32469849934	62969.32461908334	62969.3232205	62969.32461908334	62969.336215625	62975.32461908334	62975.336270917	6				40	649.17	-0.6	-0.4999		3		1	5	0	0	34
62975.34157362434	62975.34157362434	5.35	5.348251167662966	62986.69165291634	62980.69157362434	62980.689824792	62980.69157362434	62980.703066709	62986.69157362434	62986.703104209	6				40	644.39	-0.6	-0.4999		3		1	6	0	0	35
62975.34157362434	62976.09157362434	5.35	5.348251167662966	62986.69165291634	62980.69157362434	62980.689824792	62980.69157362434	62980.703066709	62986.69157362434	62986.703104209	6				40	641.77	-0.6	-0.4999		3		1	6	0	0	35
62975.34157362434	62976.84157362434	5.35	5.348251167662966	62986.69165291634	62980.69157362434	62980.689824792	62980.69157362434	62980.703066709	62986.69157362434	62986.703104209	6				40	641.97	-0.6	-0.4999		3		1	6	0	0	35
62975.34157362434	62977.59157362434	5.35	5.348251167662966	62986.69165291634	62980.69157362434	62980.689824792	62980.69157362434	62980.703066709	62986.69157362434	62986.703104209	6				40	633.38	-0.6	-0.4999		3		1	6	0	0	35
62975.34157362434	62978.34157362434	5.35	5.348251167662966	62986.69165291634	62980.69157362434	62980.689824792	62980.69157362434	62980.703066709	62986.69157362434	62986.703104209	6				40	630.3	-0.6	-0.4999		3		1	6	0	0	35
62975.34157362434	62979.09157362434	5.35	5.348251167662966	62986.69165291634	62980.69157362434	62980.689824792	62980.69157362434	62980.703066709	62986.69157362434	62986.703104209	6				40	637.55	-0.6	-0.4999		3		1	6	0	0	35
62975.34157362434	62979.84157362434	5.35	5.348251167662966	62986.69165291634	62980.69157362434	62980.689824792	62980.69157362434	62980.703066709	62986.69157362434	62986.703104209	6				40	675.59	-0.6	-0.4999		3		1	6	1	0	35
62975.34157362434	62980.59157362434	5.35	5.348251167662966	62986.69165291634	62980.69157362434	62980.689824792	62980.69157362434	62980.703066709	62986.69157362434	62986.703104209	6				40	632.07	-0.6	-0.4999		3		1	6	0	0	35
62986.70852804134	62986.70852804134	5.35	5.347845333664736	62998.05860758334	62992.058528041336	62992.056373375	62992.058528041336	62992.069806959	62998.058528041336	62998.069888625	6				40	628.09	-0.6	-0.4999		4		2	0	0	0	36
62986.70852804134	62987.45852804134	5.35	5.347845333664736	62998.05860758334	62992.058528041336	62992.056373375	62992.058528041336	62992.069806959	62998.058528041336	62998.069888625	6				40	627.84	-0.6	-0.4999		4		2	0	0	0	36
62986.70852804134	62988.20852804134	5.35	5.347845333664736	62998.05860758334	62992.058528041336	62992.056373375	62992.058528041336	62992.069806959	62998.058528041336	62998.069888625	6				40	622.22	-0.6	-0.4999		4		2	0	0	0	36
62986.70852804134	62988.95852804134	5.35	5.347845333664736	62998.05860758334	62992.058528041336	62992.056373375	62992.058528041336	62992.069806959	62998.058528041336	62998.069888625	6				40	621.23	-0.6	-0.4999		4		2	0	0	0	36
62986.70852804134	62989.70852804134	5.35	5.347845333664736	62998.05860758334	62992.058528041336	62992.056373375	62992.058528041336	62992.069806959	62998.058528041336	62998.069888625	6				40	626.28	-0.6	-0.4999		4		2	0	0	0	36
62986.70852804134	62990.45852804134	5.35	5.347845333664736	62998.05860758334	62992.058528041336	62992.056373375	62992.058528041336	62992.069806959	62998.058528041336	62998.069888625	6				40	622.39	-0.6	-0.4999		4		2	0	0	0	36
62986.70852804134	62991.20852804134	5.35	5.347845333664736	62998.05860758334	62992.058528041336	62992.056373375	62992.058528041336	62992.069806959	62998.058528041336	62998.069888625	6				40	621.14	-0.6	-0.4999		4		2	0	0	0	36
62986.70852804134	62991.95852804134	5.35	5.347845333664736	62998.05860758334	62992.058528041336	62992.056373375	62992.058528041336	62992.069806959	62998.058528041336	62998.069888625	6				40	619.71	-0.6	-0.4999		4		2	0	0	0	36
62998.075170208336	62998.075170208336	5.35	5.348256958663114	63009.42525029134	63003.425170208335	63003.423427167	63003.425170208335	63003.436532042	63009.425170208335	63009.436558542	6				40	621.51	-0.6	-0.4999		3		0	3	0	0	37
62998.075170208336	62998.825170208336	5.35	5.348256958663114	63009.42525029134	63003.425170208335	63003.423427167	63003.425170208335	63003.436532042	63009.425170208335	63009.436558542	6				40	623.94	-0.6	-0.4999		3		0	3	0	0	37
62998.075170208336	62999.575170208336	5.35	5.348256958663114	63009.42525029134	63003.425170208335	63003.423427167	63003.425170208335	63003.436532042	63009.425170208335	63009.436558542	6				40	622.85	-0.6	-0.4999		3		0	3	0	0	37
62998.075170208336	63000.325170208336	5.35	5.348256958663114	63009.42525029134	63003.425170208335	63003.423427167	63003.425170208335	63003.436532042	63009.425170208335	63009.436558542	6				40	677.43	-0.6	-0.4999		3		0	3	1	0	37
62998.075170208336	63001.075170208336	5.35	5.348256958663114	63009.42525029134	63003.425170208335	63003.423427167	63003.425170208335	63003.436532042	63009.425170208335	63009.436558542	6				40	623.14	-0.6	-0.4999		3		0	3	0	0	37
62998.075170208336	63001.825170208336	5.35	5.348256958663114	63009.42525029134	63003.425170208335	63003.423427167	63003.425170208335	63003.436532042	63009.425170208335	63009.436558542	6				40	626.81	-0.6	-0.4999		3		0	3	0	0	37
62998.075170208336	63002.575170208336	5.35	5.348256958663114	63009.42525029134	63003.425170208335	63003.423427167	63003.425170208335	63003.436532042	63009.425170208335	63009.436558542	6				40	621.83	-0.6	-0.4999		3		0	3	0	0	37
62998.075170208336	63003.325170208336	5.35	5.348256958663114	63009.42525029134	63003.425170208335	63003.423427167	63003.425170208335	63003.436532042	63009.425170208335	63009.436558542	6				40	626.63	-0.6	-0.4999		3		0	3	0	0	37
63009.44181291634	63009.44181291634	5.35	5.348366875659849	63020.79189233334	63014.79181291634	63014.790179792	63014.79181291634	63014.803209	63020.79181291634	63020.8033405	6				40	628.53	-0.6	-0.4999		3		0	3	0	0	38
63009.44181291634	63010.19181291634	5.35	5.348366875659849	63020.79189233334	63014.79181291634	63014.790179792	63014.79181291634	63014.803209	63020.79181291634	63020.8033405	6				40	631.44	-0.6	-0.4999		3		0	3	0	0	38
63009.44181291634	63010.94181291634	5.35	5.348366875659849	63020.79189233334	63014.79181291634	63014.790179792	63014.79181291634	63014.803209	63020.79181291634	63020.8033405	6				40	621.63	-0.6	-0.4999		3		0	3	0	0	38
63009.44181291634	63011.69181291634	5.35	5.348366875659849	63020.79189233334	63014.79181291634	63014.790179792	63014.79181291634	63014.803209	63020.79181291634	63020.8033405	6				40	661.07	-0.6	-0.4999		3		0	3	1	0	38
63009.44181291634	63012.44181291634	5.35	5.348366875659849	63020.79189233334	63014.79181291634	63014.790179792	63014.79181291634	63014.803209	63020.79181291634	63020.8033405	6				40	624.34	-0.6	-0.4999		3		0	3	0	0	38
63009.44181291634	63013.19181291634	5.35	5.348366875659849	63020.79189233334	63014.79181291634	63014.790179792	63014.79181291634	63014.803209	63020.79181291634	63020.8033405	6				40	621.37	-0.6	-0.4999		3		0	3	0	0	38
63009.44181291634	63013.94181291634	5.35	5.348366875659849	63020.79189233334	63014.79181291634	63014.790179792	63014.79181291634	63014.803209	63020.79181291634	63020.8033405	6				40	624.32	-0.6	-0.4999		3		0	3	0	0	38
63009.44181291634	63014.69181291634	5.35	5.348366875659849	63020.79189233334	63014.79181291634	63014.790179792	63014.79181291634	63014.803209	63020.79181291634	63020.8033405	6				40	618.62	-0.6	-0.4999		3		0	3	0	0	38
63020.80876745834	63020.80876745834	5.35	5.348139708665258	63032.15884658334	63026.158767458335	63026.156907167	63026.158767458335	63026.1699905	63032.158767458335	63032.170029709	6				40	621.82	-0.6	-0.4999		3		0	4	0	0	39
63020.80876745834	63021.55876745834	5.35	5.348139708665258	63032.15884658334	63026.158767458335	63026.156907167	63026.158767458335	63026.1699905	63032.158767458335	63032.170029709	6				40	616.72	-0.6	-0.4999		3		0	4	0	0	39
63020.80876745834	63022.30876745834	5.35	5.348139708665258	63032.15884658334	63026.158767458335	63026.156907167	63026.158767458335	63026.1699905	63032.158767458335	63032.170029709	6				40	616.82	-0.6	-0.4999		3		0	4	0	0	39
63020.80876745834	63023.05876745834	5.35	5.348139708665258	63032.15884658334	63026.158767458335	63026.156907167	63026.158767458335	63026.1699905	63032.158767458335	63032.170029709	6				40	618.23	-0.6	-0.4999		3		0	4	0	0	39
63020.80876745834	63023.80876745834	5.35	5.348139708665258	63032.15884658334	63026.158767458335	63026.156907167	63026.158767458335	63026.1699905	63032.158767458335	63032.170029709	6				40	655.92	-0.6	-0.4999		3		0	4	1	0	39
63020.80876745834	63024.55876745834	5.35	5.348139708665258	63032.15884658334	63026.158767458335	63026.156907167	63026.158767458335	63026.1699905	63032.158767458335	63032.170029709	6				40	614.02	-0.6	-0.4999		3		0	4	0	0	39
63020.80876745834	63025.30876745834	5.35	5.348139708665258	63032.15884658334	63026.158767458335	63026.156907167	63026.158767458335	63026.1699905	63032.158767458335	63032.170029709	6				40	607.09	-0.6	-0.4999		3		0	4	0	0	39
63020.80876745834	63026.05876745834	5.35	5.348139708665258	63032.15884658334	63026.158767458335	63026.156907167	63026.158767458335	63026.1699905	63032.158767458335	63032.170029709	6				40	609.09	-0.6	-0.4999		3		0	4	0	0	39
63032.175409208336	63032.175409208336	5.35	5.348066250662669	63043.525488708336	63037.525409208334	63037.523475459	63037.525409208334	63037.536757375	63043.525409208334	63043.536730042	6				40	609.94	-0.6	-0.4999		3		0	2	0	0	40
63032.175409208336	63032.925409208336	5.35	5.348066250662669	63043.525488708336	63037.525409208334	63037.523475459	63037.525409208334	63037.536757375	63043.525409208334	63043.536730042	6				40	608.38	-0.6	-0.4999		3		0	2	0	0	40
63032.175409208336	63033.675409208336	5.35	5.348066250662669	63043.525488708336	63037.525409208334	63037.523475459	63037.525409208334	63037.536757375	63043.525409208334	63043.536730042	6				40	659.92	-0.6	-0.4999		3		0	2	1	0	40
63032.175409208336	63034.425409208336	5.35	5.348066250662669	63043.525488708336	63037.525409208334	63037.523475459	63037.525409208334	63037.536757375	63043.525409208334	63043.536730042	6				40	612.91	-0.6	-0.4999		3		0	2	0	0	40
63032.175409208336	63035.175409208336	5.35	5.348066250662669	63043.525488708336	63037.525409208334	63037.523475459	63037.525409208334	63037.536757375	63043.525409208334	63043.536730042	6				40	614.2	-0.6	-0.4999		3		0	2	0	0	40
63032.175409208336	63035.925409208336	5.35	5.348066250662669	63043.525488708336	63037.525409208334	63037.523475459	63037.525409208334	63037.536757375	63043.525409208334	63043.536730042	6				40	613.34	-0.6	-0.4999		3		0	2	0	0	40
63032.175409208336	63036.675409208336	5.35	5.348066250662669	63043.525488708336	63037.525409208334	63037.523475459	63037.525409208334	63037.536757375	63043.525409208334	63043.536730042	6				40	609.49	-0.6	-0.4999		3		0	2	0	0	40
63032.175409208336	63037.425409208336	5.35	5.348066250662669	63043.525488708336	63037.525409208334	63037.523475459	63037.525409208334	63037.536757375	63043.525409208334	63043.536730042	6				40	608.28	-0.6	-0.4999		3		0	2	0	0	40
63043.54205133334	63043.54205133334	5.35	5.348303291662887	63054.89213154134	63048.892051333336	63048.890354625	63048.892051333336	63048.903472459	63054.892051333336	63054.903526917	6				40	606.81	-0.6	-0.4999		3		0	2	0	0	41
63043.54205133334	63044.29205133334	5.35	5.348303291662887	63054.89213154134	63048.892051333336	63048.890354625	63048.892051333336	63048.903472459	63054.892051333336	63054.903526917	6				40	606.22	-0.6	-0.4999		3		0	2	0	0	41
63043.54205133334	63045.04205133334	5.35	5.348303291662887	63054.89213154134	63048.892051333336	63048.890354625	63048.892051333336	63048.903472459	63054.892051333336	63054.903526917	6				40	660.04	-0.6	-0.4999		3		0	2	1	0	41
63043.54205133334	63045.79205133334	5.35	5.348303291662887	63054.89213154134	63048.892051333336	63048.890354625	63048.892051333336	63048.903472459	63054.892051333336	63054.903526917	6				40	602.36	-0.6	-0.4999		3		0	2	0	0	41
63043.54205133334	63046.54205133334	5.35	5.348303291662887	63054.89213154134	63048.892051333336	63048.890354625	63048.892051333336	63048.903472459	63054.892051333336	63054.903526917	6				40	602.67	-0.6	-0.4999		3		0	2	0	0	41
63043.54205133334	63047.29205133334	5.35	5.348303291662887	63054.89213154134	63048.892051333336	63048.890354625	63048.892051333336	63048.903472459	63054.892051333336	63054.903526917	6				40	606.08	-0.6	-0.4999		3		0	2	0	0	41
63043.54205133334	63048.04205133334	5.35	5.348303291662887	63054.89213154134	63048.892051333336	63048.890354625	63048.892051333336	63048.903472459	63054.892051333336	63054.903526917	6				40	609.89	-0.6	-0.4999		3		0	2	0	0	41
63043.54205133334	63048.79205133334	5.35	5.348303291662887	63054.89213154134	63048.892051333336	63048.890354625	63048.892051333336	63048.903472459	63054.892051333336	63054.903526917	6				40	604.27	-0.6	-0.4999		3		0	2	0	0	41
63054.90900662434	63054.90900662434	5.35	5.347861792659387	63066.25908691634	63060.259006624336	63060.256868417	63060.259006624336	63060.27027625	63066.259006624336	63066.270233709	6				40	603.3	-0.6	-0.4999		3		0	2	0	0	42
63054.90900662434	63055.65900662434	5.35	5.347861792659387	63066.25908691634	63060.259006624336	63060.256868417	63060.259006624336	63060.27027625	63066.259006624336	63066.270233709	6				40	601.09	-0.6	-0.4999		3		0	2	0	0	42
63054.90900662434	63056.40900662434	5.35	5.347861792659387	63066.25908691634	63060.259006624336	63060.256868417	63060.259006624336	63060.27027625	63066.259006624336	63066.270233709	6				40	673.79	-0.6	-0.4999		3		0	2	1	0	42
63054.90900662434	63057.15900662434	5.35	5.347861792659387	63066.25908691634	63060.259006624336	63060.256868417	63060.259006624336	63060.27027625	63066.259006624336	63066.270233709	6				40	606.31	-0.6	-0.4999		3		0	2	0	0	42
63054.90900662434	63057.90900662434	5.35	5.347861792659387	63066.25908691634	63060.259006624336	63060.256868417	63060.259006624336	63060.27027625	63066.259006624336	63066.270233709	6				40	614.35	-0.6	-0.4999		3		0	2	0	0	42
63054.90900662434	63058.65900662434	5.35	5.347861792659387	63066.25908691634	63060.259006624336	63060.256868417	63060.259006624336	63060.27027625	63066.259006624336	63066.270233709	6				40	607.69	-0.6	-0.4999		3		0	2	0	0	42
63054.90900662434	63059.40900662434	5.35	5.347861792659387	63066.25908691634	63060.259006624336	63060.256868417	63060.259006624336	63060.27027625	63066.259006624336	63066.270233709	6				40	603.14	-0.6	-0.4999		3		0	2	0	0	42
63054.90900662434	63060.15900662434	5.35	5.347861792659387	63066.25908691634	63060.259006624336	63060.256868417	63060.259006624336	63060.27027625	63066.259006624336	63066.270233709	6				40	607.3	-0.6	-0.4999		3		0	2	0	0	42
63066.27596204134	63066.27596204134	5.35	5.347828125661181	63077.62604199934	63071.62596204134	63071.623790167	63071.62596204134	63071.636959209	63077.62596204134	63077.637138	6				40	610.22	-0.6	-0.4999		3		0	3	0	0	43
63066.27596204134	63067.02596204134	5.35	5.347828125661181	63077.62604199934	63071.62596204134	63071.623790167	63071.62596204134	63071.636959209	63077.62596204134	63077.637138	6				40	611.49	-0.6	-0.4999		3		0	3	0	0	43
63066.27596204134	63067.77596204134	5.35	5.347828125661181	63077.62604199934	63071.62596204134	63071.623790167	63071.62596204134	63071.636959209	63077.62596204134	63077.637138	6				40	614.06	-0.6	-0.4999		3		0	3	0	0	43
63066.27596204134	63068.52596204134	5.35	5.347828125661181	63077.62604199934	63071.62596204134	63071.623790167	63071.62596204134	63071.636959209	63077.62596204134	63077.637138	6				40	645.03	-0.6	-0.4999		3		0	3	1	0	43
63066.27596204134	63069.27596204134	5.35	5.347828125661181	63077.62604199934	63071.62596204134	63071.623790167	63071.62596204134	63071.636959209	63077.62596204134	63077.637138	6				40	605.59	-0.6	-0.4999		3		0	3	0	0	43
63066.27596204134	63070.02596204134	5.35	5.347828125661181	63077.62604199934	63071.62596204134	63071.623790167	63071.62596204134	63071.636959209	63077.62596204134	63077.637138	6				40	612.95	-0.6	-0.4999		3		0	3	0	0	43
63066.27596204134	63070.77596204134	5.35	5.347828125661181	63077.62604199934	63071.62596204134	63071.623790167	63071.62596204134	63071.636959209	63077.62596204134	63077.637138	6				40	605.95	-0.6	-0.4999		3		0	3	0	0	43
63066.27596204134	63071.52596204134	5.35	5.347828125661181	63077.62604199934	63071.62596204134	63071.623790167	63071.62596204134	63071.636959209	63077.62596204134	63077.637138	6				40	603.45	-0.6	-0.4999		3		0	3	0	0	43
63077.642604624336	63077.642604624336	5.35	5.347948792667012	63088.99268466634	63082.992604624334	63082.990553417	63082.992604624334	63083.003047459	63088.992604624334	63089.003890542	6				40	606.07	-0.6	-0.4999		3		0	4	0	0	44
63077.642604624336	63078.392604624336	5.35	5.347948792667012	63088.99268466634	63082.992604624334	63082.990553417	63082.992604624334	63083.003047459	63088.992604624334	63089.003890542	6				40	603.74	-0.6	-0.4999		3		0	4	0	0	44
63077.642604624336	63079.142604624336	5.35	5.347948792667012	63088.99268466634	63082.992604624334	63082.990553417	63082.992604624334	63083.003047459	63088.992604624334	63089.003890542	6				40	608.96	-0.6	-0.4999		3		0	4	0	0	44
63077.642604624336	63079.892604624336	5.35	5.347948792667012	63088.99268466634	63082.992604624334	63082.990553417	63082.992604624334	63083.003047459	63088.992604624334	63089.003890542	6				40	605.32	-0.6	-0.4999		3		0	4	0	0	44
63077.642604624336	63080.642604624336	5.35	5.347948792667012	63088.99268466634	63082.992604624334	63082.990553417	63082.992604624334	63083.003047459	63088.992604624334	63089.003890542	6				40	659.93	-0.6	-0.4999		3		0	4	1	0	44
63077.642604624336	63081.392604624336	5.35	5.347948792667012	63088.99268466634	63082.992604624334	63082.990553417	63082.992604624334	63083.003047459	63088.992604624334	63089.003890542	6				40	608.67	-0.6	-0.4999		3		0	4	0	0	44
63077.642604624336	63082.142604624336	5.35	5.347948792667012	63088.99268466634	63082.992604624334	63082.990553417	63082.992604624334	63083.003047459	63088.992604624334	63089.003890542	6				40	610.45	-0.6	-0.4999		3		0	4	0	0	44
63077.642604624336	63082.892604624336	5.35	5.347948792667012	63088.99268466634	63082.992604624334	63082.990553417	63082.992604624334	63083.003047459	63088.992604624334	63089.003890542	6				40	607.1	-0.6	-0.4999		3		0	4	0	0	44
63089.00924729134	63089.00924729134	5.35	5.347991917660693	63100.35932824934	63094.35924729134	63094.357239209	63094.35924729134	63094.370280042	63100.35924729134	63100.370528084	6				40	605.35	-0.6	-0.4999		3		1	5	0	0	45
63089.00924729134	63089.75924729134	5.35	5.347991917660693	63100.35932824934	63094.35924729134	63094.357239209	63094.35924729134	63094.370280042	63100.35924729134	63100.370528084	6				40	602.95	-0.6	-0.4999		3		1	5	0	0	45
63089.00924729134	63090.50924729134	5.35	5.347991917660693	63100.35932824934	63094.35924729134	63094.357239209	63094.35924729134	63094.370280042	63100.35924729134	63100.370528084	6				40	602.33	-0.6	-0.4999		3		1	5	0	0	45
63089.00924729134	63091.25924729134	5.35	5.347991917660693	63100.35932824934	63094.35924729134	63094.357239209	63094.35924729134	63094.370280042	63100.35924729134	63100.370528084	6				40	610.35	-0.6	-0.4999		3		1	5	0	0	45
63089.00924729134	63092.00924729134	5.35	5.347991917660693	63100.35932824934	63094.35924729134	63094.357239209	63094.35924729134	63094.370280042	63100.35924729134	63100.370528084	6				40	613.71	-0.6	-0.4999		3		1	5	0	0	45
63089.00924729134	63092.75924729134	5.35	5.347991917660693	63100.35932824934	63094.35924729134	63094.357239209	63094.35924729134	63094.370280042	63100.35924729134	63100.370528084	6				40	674.18	-0.6	-0.4999		3		1	5	1	0	45
63089.00924729134	63093.50924729134	5.35	5.347991917660693	63100.35932824934	63094.35924729134	63094.357239209	63094.35924729134	63094.370280042	63100.35924729134	63100.370528084	6				40	605.22	-0.6	-0.4999		3		1	5	0	0	45
63089.00924729134	63094.25924729134	5.35	5.347991917660693	63100.35932824934	63094.35924729134	63094.357239209	63094.35924729134	63094.370280042	63100.35924729134	63100.370528084	6				40	610.26	-0.6	-0.4999		3		1	5	0	0	45
63100.37589083334	63100.37589083334	5.35	5.347579666660749	63111.72597274934	63105.72589083334	63105.7234705	63105.72589083334	63105.737402917	63111.72589083334	63111.737343	6				40	612.1	-0.6	-0.4999		3		1	4	0	0	46
63100.37589083334	63101.12589083334	5.35	5.347579666660749	63111.72597274934	63105.72589083334	63105.7234705	63105.72589083334	63105.737402917	63111.72589083334	63111.737343	6				40	613.19	-0.6	-0.4999		3		1	4	0	0	46
63100.37589083334	63101.87589083334	5.35	5.347579666660749	63111.72597274934	63105.72589083334	63105.7234705	63105.72589083334	63105.737402917	63111.72589083334	63111.737343	6				40	621.1	-0.6	-0.4999		3		1	4	0	0	46
63100.37589083334	63102.62589083334	5.35	5.347579666660749	63111.72597274934	63105.72589083334	63105.7234705	63105.72589083334	63105.737402917	63111.72589083334	63111.737343	6				40	622.96	-0.6	-0.4999		3		1	4	0	0	46
63100.37589083334	63103.37589083334	5.35	5.347579666660749	63111.72597274934	63105.72589083334	63105.7234705	63105.72589083334	63105.737402917	63111.72589083334	63111.737343	6				40	693.13	-0.6	-0.4999		3		1	4	1	0	46
63100.37589083334	63104.12589083334	5.35	5.347579666660749	63111.72597274934	63105.72589083334	63105.7234705	63105.72589083334	63105.737402917	63111.72589083334	63111.737343	6				40	618.85	-0.6	-0.4999		3		1	4	0	0	46
63100.37589083334	63104.87589083334	5.35	5.347579666660749	63111.72597274934	63105.72589083334	63105.7234705	63105.72589083334	63105.737402917	63111.72589083334	63111.737343	6				40	623.22	-0.6	-0.4999		3		1	4	0	0	46
63100.37589083334	63105.62589083334	5.35	5.347579666660749	63111.72597274934	63105.72589083334	63105.7234705	63105.72589083334	63105.737402917	63111.72589083334	63111.737343	6				40	623.53	-0.6	-0.4999		3		1	4	0	0	46
63111.74253537434	63111.74253537434	5.35	5.34849979266437	63123.09261674934	63117.09253537434	63117.091035167	63117.09253537434	63117.104011375	63123.09253537434	63123.104097375	6				40	619.91	-0.6	-0.4999		3		1	6	0	0	47
63111.74253537434	63112.49253537434	5.35	5.34849979266437	63123.09261674934	63117.09253537434	63117.091035167	63117.09253537434	63117.104011375	63123.09253537434	63123.104097375	6				40	620.71	-0.6	-0.4999		3		1	6	0	0	47
63111.74253537434	63113.24253537434	5.35	5.34849979266437	63123.09261674934	63117.09253537434	63117.091035167	63117.09253537434	63117.104011375	63123.09253537434	63123.104097375	6				40	624.8	-0.6	-0.4999		3		1	6	0	0	47
63111.74253537434	63113.99253537434	5.35	5.34849979266437	63123.09261674934	63117.09253537434	63117.091035167	63117.09253537434	63117.104011375	63123.09253537434	63123.104097375	6				40	622.6	-0.6	-0.4999		3		1	6	0	0	47
63111.74253537434	63114.74253537434	5.35	5.34849979266437	63123.09261674934	63117.09253537434	63117.091035167	63117.09253537434	63117.104011375	63123.09253537434	63123.104097375	6				40	629.04	-0.6	-0.4999		3		1	6	0	0	47
63111.74253537434	63115.49253537434	5.35	5.34849979266437	63123.09261674934	63117.09253537434	63117.091035167	63117.09253537434	63117.104011375	63123.09253537434	63123.104097375	6				40	624.12	-0.6	-0.4999		3		1	6	0	0	47
63111.74253537434	63116.24253537434	5.35	5.34849979266437	63123.09261674934	63117.09253537434	63117.091035167	63117.09253537434	63117.104011375	63123.09253537434	63123.104097375	6				40	686.16	-0.6	-0.4999		3		1	6	1	0	47
63111.74253537434	63116.99253537434	5.35	5.34849979266437	63123.09261674934	63117.09253537434	63117.091035167	63117.09253537434	63117.104011375	63123.09253537434	63123.104097375	6				40	627.22	-0.6	-0.4999		3		1	6	0	0	47
63123.10949187434	63123.10949187434	5.35	5.347442875659908	63134.45957399934	63128.45949187434	63128.45693475	63128.45949187434	63128.470957334	63134.45949187434	63134.470761917	6				40	627.53	-0.6	-0.4999		3		1	6	0	0	48
63123.10949187434	63123.85949187434	5.35	5.347442875659908	63134.45957399934	63128.45949187434	63128.45693475	63128.45949187434	63128.470957334	63134.45949187434	63134.470761917	6				40	624.83	-0.6	-0.4999		3		1	6	0	0	48
63123.10949187434	63124.60949187434	5.35	5.347442875659908	63134.45957399934	63128.45949187434	63128.45693475	63128.45949187434	63128.470957334	63134.45949187434	63134.470761917	6				40	624.09	-0.6	-0.4999		3		1	6	0	0	48
63123.10949187434	63125.35949187434	5.35	5.347442875659908	63134.45957399934	63128.45949187434	63128.45693475	63128.45949187434	63128.470957334	63134.45949187434	63134.470761917	6				40	615.62	-0.6	-0.4999		3		1	6	0	0	48
63123.10949187434	63126.10949187434	5.35	5.347442875659908	63134.45957399934	63128.45949187434	63128.45693475	63128.45949187434	63128.470957334	63134.45949187434	63134.470761917	6				40	613.28	-0.6	-0.4999		3		1	6	0	0	48
63123.10949187434	63126.85949187434	5.35	5.347442875659908	63134.45957399934	63128.45949187434	63128.45693475	63128.45949187434	63128.470957334	63134.45949187434	63134.470761917	6				40	610.41	-0.6	-0.4999		3		1	6	0	0	48
63123.10949187434	63127.60949187434	5.35	5.347442875659908	63134.45957399934	63128.45949187434	63128.45693475	63128.45949187434	63128.470957334	63134.45949187434	63134.470761917	6				40	669.69	-0.6	-0.4999		3		1	6	1	0	48
63123.10949187434	63128.35949187434	5.35	5.347442875659908	63134.45957399934	63128.45949187434	63128.45693475	63128.45949187434	63128.470957334	63134.45949187434	63134.470761917	6				40	608.81	-0.6	-0.4999		3		1	6	0	0	48
63134.47613662434	63134.47613662434	5.35	5.348264167660091	63145.82621941634	63139.82613662434	63139.824400792	63139.82613662434	63139.837476084	63145.82613662434	63145.8375035	6				40	609.88	-0.6	-0.4999		3		1	6	0	0	49
63134.47613662434	63135.22613662434	5.35	5.348264167660091	63145.82621941634	63139.82613662434	63139.824400792	63139.82613662434	63139.837476084	63145.82613662434	63145.8375035	6				40	610.14	-0.6	-0.4999		3		1	6	0	0	49
63134.47613662434	63135.97613662434	5.35	5.348264167660091	63145.82621941634	63139.82613662434	63139.824400792	63139.82613662434	63139.837476084	63145.82613662434	63145.8375035	6				40	595.5	-0.6	-0.4999		3		1	6	0	0	49
63134.47613662434	63136.72613662434	5.35	5.348264167660091	63145.82621941634	63139.82613662434	63139.824400792	63139.82613662434	63139.837476084	63145.82613662434	63145.8375035	6				40	610.96	-0.6	-0.4999		3		1	6	0	0	49
63134.47613662434	63137.47613662434	5.35	5.348264167660091	63145.82621941634	63139.82613662434	63139.824400792	63139.82613662434	63139.837476084	63145.82613662434	63145.8375035	6				40	606.88	-0.6	-0.4999		3		1	6	0	0	49
63134.47613662434	63138.22613662434	5.35	5.348264167660091	63145.82621941634	63139.82613662434	63139.824400792	63139.82613662434	63139.837476084	63145.82613662434	63145.8375035	6				40	596.66	-0.6	-0.4999		3		1	6	0	0	49
63134.47613662434	63138.97613662434	5.35	5.348264167660091	63145.82621941634	63139.82613662434	63139.824400792	63139.82613662434	63139.837476084	63145.82613662434	63145.8375035	6				40	658.66	-0.6	-0.4999		3		1	6	1	0	49
63134.47613662434	63139.72613662434	5.35	5.348264167660091	63145.82621941634	63139.82613662434	63139.824400792	63139.82613662434	63139.837476084	63145.82613662434	63145.8375035	6				40	606.3	-0.6	-0.4999		3		1	6	0	0	49
63145.84278204134	63145.84278204134	5.35	5.349227750659338	63157.19286433334	63151.19278204134	63151.192009792	63151.19278204134	63151.2046075	63157.19278204134	63157.203543042	6				40	608.96	-0.6	-0.4999		3		1	5	0	0	50
63145.84278204134	63146.59278204134	5.35	5.349227750659338	63157.19286433334	63151.19278204134	63151.192009792	63151.19278204134	63151.2046075	63157.19278204134	63157.203543042	6				40	601.05	-0.6	-0.4999		3		1	5	0	0	50
63145.84278204134	63147.34278204134	5.35	5.349227750659338	63157.19286433334	63151.19278204134	63151.192009792	63151.19278204134	63151.2046075	63157.19278204134	63157.203543042	6				40	598.94	-0.6	-0.4999		3		1	5	0	0	50
63145.84278204134	63148.09278204134	5.35	5.349227750659338	63157.19286433334	63151.19278204134	63151.192009792	63151.19278204134	63151.2046075	63157.19278204134	63157.203543042	6				40	599.64	-0.6	-0.4999		3		1	5	0	0	50
63145.84278204134	63148.84278204134	5.35	5.349227750659338	63157.19286433334	63151.19278204134	63151.192009792	63151.19278204134	63151.2046075	63157.19278204134	63157.203543042	6				40	599.78	-0.6	-0.4999		3		1	5	0	0	50
63145.84278204134	63149.59278204134	5.35	5.349227750659338	63157.19286433334	63151.19278204134	63151.192009792	63151.19278204134	63151.2046075	63157.19278204134	63157.203543042	6				40	646.41	-0.6	-0.4999		3		1	5	1	0	50
63145.84278204134	63150.34278204134	5.35	5.349227750659338	63157.19286433334	63151.19278204134	63151.192009792	63151.19278204134	63151.2046075	63157.19278204134	63157.203543042	6				40	591.12	-0.6	-0.4999		3		1	5	0	0	50
63145.84278204134	63151.09278204134	5.35	5.349227750659338	63157.19286433334	63151.19278204134	63151.192009792	63151.19278204134	63151.2046075	63157.19278204134	63157.203543042	6				40	599.76	-0.6	-0.4999		3		1	5	0	0	50
63157.20911445834	63157.20911445834	5.35	5.348688166661304	63168.55919595834	63162.55911445834	63162.557802625	63162.55911445834	63162.570961792	63168.55911445834	63168.571119417	6				40	597.8	-0.6	-0.4999		3		1	6	0	0	51
63157.20911445834	63157.95911445834	5.35	5.348688166661304	63168.55919595834	63162.55911445834	63162.557802625	63162.55911445834	63162.570961792	63168.55911445834	63168.571119417	6				40	609.08	-0.6	-0.4999		3		1	6	0	0	51
63157.20911445834	63158.70911445834	5.35	5.348688166661304	63168.55919595834	63162.55911445834	63162.557802625	63162.55911445834	63162.570961792	63168.55911445834	63168.571119417	6				40	603.24	-0.6	-0.4999		3		1	6	0	0	51
63157.20911445834	63159.45911445834	5.35	5.348688166661304	63168.55919595834	63162.55911445834	63162.557802625	63162.55911445834	63162.570961792	63168.55911445834	63168.571119417	6				40	610.91	-0.6	-0.4999		3		1	6	0	0	51
63157.20911445834	63160.20911445834	5.35	5.348688166661304	63168.55919595834	63162.55911445834	63162.557802625	63162.55911445834	63162.570961792	63168.55911445834	63168.571119417	6				40	607.45	-0.6	-0.4999		3		1	6	0	0	51
63157.20911445834	63160.95911445834	5.35	5.348688166661304	63168.55919595834	63162.55911445834	63162.557802625	63162.55911445834	63162.570961792	63168.55911445834	63168.571119417	6				40	607.75	-0.6	-0.4999		3		1	6	0	0	51
63157.20911445834	63161.70911445834	5.35	5.348688166661304	63168.55919595834	63162.55911445834	63162.557802625	63162.55911445834	63162.570961792	63168.55911445834	63168.571119417	6				40	635.61	-0.6	-0.4999		3		1	6	1	0	51
63157.20911445834	63162.45911445834	5.35	5.348688166661304	63168.55919595834	63162.55911445834	63162.557802625	63162.55911445834	63162.570961792	63168.55911445834	63168.571119417	6				40	612.99	-0.6	-0.4999		3		1	6	0	0	51
63168.576696083335	63168.576696083335	5.35	5.347943000662781	63179.92678141634	63173.926696083334	63173.924639084	63173.926696083334	63173.937725667	63179.926696083334	63179.938132709	6				40	612.06	-0.6	-0.4999		3		1	5	0	0	52
