onset	onset_tone	duration	duration_getsecs	offset_trial	offset_sound	offset_sound_getsecs	onset_iti	onset_iti_getsecs	offset_iti	offset_iti_getsecs	ITI	rt_getsecs_trial	rt_getsecs_dev	rt_slider_getsecs	tau_std	frequency	lim_std	lim_dev	key_pressed	correct	confidence	rule	dpos	trial_type	is_catch_n_minus_one	catch_key	catch_correct	catch_rt	runs	trial_no
878036.985010416	878036.985010416	5.35	5.34393487602938	878048.3384080001	878042.335010416	878042.328945292	878042.335010416	878042.34313925	878048.335010416	878048.343115167	6	5.725144000956789	5.725144000956789	1.6523939159233123	16	641.75	-0.6	-0.506	v	5	5	2	0	0	0				0	0
878036.985010416	878037.735010416	5.35	5.34393487602938	878048.3384080001	878042.335010416	878042.328945292	878042.335010416	878042.34313925	878048.335010416	878048.343115167	6	5.725144000956789	5.725144000956789	1.6523939159233123	16	620.91	-0.6	-0.506	v	5	5	2	0	0	0				0	0
878036.985010416	878038.485010416	5.35	5.34393487602938	878048.3384080001	878042.335010416	878042.328945292	878042.335010416	878042.34313925	878048.335010416	878048.343115167	6	5.725144000956789	5.725144000956789	1.6523939159233123	16	673.52	-0.6	-0.506	v	5	5	2	0	0	0				0	0
878036.985010416	878039.235010416	5.35	5.34393487602938	878048.3384080001	878042.335010416	878042.328945292	878042.335010416	878042.34313925	878048.335010416	878048.343115167	6	5.725144000956789	5.725144000956789	1.6523939159233123	16	624.69	-0.6	-0.506	v	5	5	2	0	0	0				0	0
878036.985010416	878039.985010416	5.35	5.34393487602938	878048.3384080001	878042.335010416	878042.328945292	878042.335010416	878042.34313925	878048.335010416	878048.343115167	6	5.725144000956789	5.725144000956789	1.6523939159233123	16	639.08	-0.6	-0.506	v	5	5	2	0	0	0				0	0
878036.985010416	878040.735010416	5.35	5.34393487602938	878048.3384080001	878042.335010416	878042.328945292	878042.335010416	878042.34313925	878048.335010416	878048.343115167	6	5.725144000956789	5.725144000956789	1.6523939159233123	16	636.72	-0.6	-0.506	v	5	5	2	0	0	0				0	0
878036.985010416	878041.485010416	5.35	5.34393487602938	878048.3384080001	878042.335010416	878042.328945292	878042.335010416	878042.34313925	878048.335010416	878048.343115167	6	5.725144000956789	5.725144000956789	1.6523939159233123	16	631.08	-0.6	-0.506	v	5	5	2	0	0	0				0	0
878036.985010416	878042.235010416	5.35	5.34393487602938	878048.3384080001	878042.335010416	878042.328945292	878042.335010416	878042.34313925	878048.335010416	878048.343115167	6	5.725144000956789	5.725144000956789	1.6523939159233123	16	630.21	-0.6	-0.506	v	5	5	2	0	0	0				0	0
878048.3471579581	878048.3471579581	5.35	5.3485302499029785	878059.6971032501	878053.697157958	878053.695688208	878053.697157958	878053.708989375	878059.697157958	878059.709700583	6	4.612974333926104	0.862974333926104	0.302591499988921	16	633.99	-0.6	-0.506	i	1	5	1	5	0	0				0	1
878048.3471579581	878049.0971579581	5.35	5.3485302499029785	878059.6971032501	878053.697157958	878053.695688208	878053.697157958	878053.708989375	878059.697157958	878059.709700583	6	4.612974333926104	0.862974333926104	0.302591499988921	16	645.66	-0.6	-0.506	i	1	5	1	5	0	0				0	1
878048.3471579581	878049.8471579581	5.35	5.3485302499029785	878059.6971032501	878053.697157958	878053.695688208	878053.697157958	878053.708989375	878059.697157958	878059.709700583	6	4.612974333926104	0.862974333926104	0.302591499988921	16	615.07	-0.6	-0.506	i	1	5	1	5	0	0				0	1
878048.3471579581	878050.5971579581	5.35	5.3485302499029785	878059.6971032501	878053.697157958	878053.695688208	878053.697157958	878053.708989375	878059.697157958	878059.709700583	6	4.612974333926104	0.862974333926104	0.302591499988921	16	624.21	-0.6	-0.506	i	1	5	1	5	0	0				0	1
878048.3471579581	878051.3471579581	5.35	5.3485302499029785	878059.6971032501	878053.697157958	878053.695688208	878053.697157958	878053.708989375	878059.697157958	878059.709700583	6	4.612974333926104	0.862974333926104	0.302591499988921	16	630.05	-0.6	-0.506	i	1	5	1	5	0	0				0	1
878048.3471579581	878052.0971579581	5.35	5.3485302499029785	878059.6971032501	878053.697157958	878053.695688208	878053.697157958	878053.708989375	878059.697157958	878059.709700583	6	4.612974333926104	0.862974333926104	0.302591499988921	16	656.61	-0.6	-0.506	i	1	5	1	5	1	0				0	1
878048.3471579581	878052.8471579581	5.35	5.3485302499029785	878059.6971032501	878053.697157958	878053.695688208	878053.697157958	878053.708989375	878059.697157958	878059.709700583	6	4.612974333926104	0.862974333926104	0.302591499988921	16	622.84	-0.6	-0.506	i	1	5	1	5	0	0				0	1
878048.3471579581	878053.5971579581	5.35	5.3485302499029785	878059.6971032501	878053.697157958	878053.695688208	878053.697157958	878053.708989375	878059.697157958	878059.709700583	6	4.612974333926104	0.862974333926104	0.302591499988921	16	648.35	-0.6	-0.506	i	1	5	1	5	0	0				0	1
878063.713960125	878063.713960125	5.35	5.348336708033457	878075.0639118751	878069.063960125	878069.062296833	878069.063960125	878069.076467542	878075.063960125	878075.076397167	6	5.696238582953811	4.196238582953811	0.27178695797920227	16	646.94	-0.6	-0.506	i	0	5	0	2	0	1	v	0	1.4921508330153301	0	2
878063.713960125	878064.463960125	5.35	5.348336708033457	878075.0639118751	878069.063960125	878069.062296833	878069.063960125	878069.076467542	878075.063960125	878075.076397167	6	5.696238582953811	4.196238582953811	0.27178695797920227	16	624.98	-0.6	-0.506	i	0	5	0	2	0	1	v	0	1.4921508330153301	0	2
878063.713960125	878065.213960125	5.35	5.348336708033457	878075.0639118751	878069.063960125	878069.062296833	878069.063960125	878069.076467542	878075.063960125	878075.076397167	6	5.696238582953811	4.196238582953811	0.27178695797920227	16	640.72	-0.6	-0.506	i	0	5	0	2	1	1	v	0	1.4921508330153301	0	2
878063.713960125	878065.963960125	5.35	5.348336708033457	878075.0639118751	878069.063960125	878069.062296833	878069.063960125	878069.076467542	878075.063960125	878075.076397167	6	5.696238582953811	4.196238582953811	0.27178695797920227	16	636.36	-0.6	-0.506	i	0	5	0	2	0	1	v	0	1.4921508330153301	0	2
878063.713960125	878066.713960125	5.35	5.348336708033457	878075.0639118751	878069.063960125	878069.062296833	878069.063960125	878069.076467542	878075.063960125	878075.076397167	6	5.696238582953811	4.196238582953811	0.27178695797920227	16	601.69	-0.6	-0.506	i	0	5	0	2	0	1	v	0	1.4921508330153301	0	2
878063.713960125	878067.463960125	5.35	5.348336708033457	878075.0639118751	878069.063960125	878069.062296833	878069.063960125	878069.076467542	878075.063960125	878075.076397167	6	5.696238582953811	4.196238582953811	0.27178695797920227	16	616.33	-0.6	-0.506	i	0	5	0	2	0	1	v	0	1.4921508330153301	0	2
878063.713960125	878068.213960125	5.35	5.348336708033457	878075.0639118751	878069.063960125	878069.062296833	878069.063960125	878069.076467542	878075.063960125	878075.076397167	6	5.696238582953811	4.196238582953811	0.27178695797920227	16	635.47	-0.6	-0.506	i	0	5	0	2	0	1	v	0	1.4921508330153301	0	2
878063.713960125	878068.963960125	5.35	5.348336708033457	878075.0639118751	878069.063960125	878069.062296833	878069.063960125	878069.076467542	878075.063960125	878075.076397167	6	5.696238582953811	4.196238582953811	0.27178695797920227	16	627.59	-0.6	-0.506	i	0	5	0	2	0	1	v	0	1.4921508330153301	0	2
878075.080474333	878075.080474333	5.35	5.348559584002942	878086.4304291251	878080.430474333	878080.429033917	878080.430474333	878080.443081542	878086.430474333	878086.442934875	6	3.9632066669873893	0.9632066669873893	0.3313793330453336	16	642.52	-0.6	-0.506	u	1	1	0	4	0	0				0	3
878075.080474333	878075.830474333	5.35	5.348559584002942	878086.4304291251	878080.430474333	878080.429033917	878080.430474333	878080.443081542	878086.430474333	878086.442934875	6	3.9632066669873893	0.9632066669873893	0.3313793330453336	16	657.33	-0.6	-0.506	u	1	1	0	4	0	0				0	3
878075.080474333	878076.580474333	5.35	5.348559584002942	878086.4304291251	878080.430474333	878080.429033917	878080.430474333	878080.443081542	878086.430474333	878086.442934875	6	3.9632066669873893	0.9632066669873893	0.3313793330453336	16	614.96	-0.6	-0.506	u	1	1	0	4	0	0				0	3
878075.080474333	878077.330474333	5.35	5.348559584002942	878086.4304291251	878080.430474333	878080.429033917	878080.430474333	878080.443081542	878086.430474333	878086.442934875	6	3.9632066669873893	0.9632066669873893	0.3313793330453336	16	614.36	-0.6	-0.506	u	1	1	0	4	0	0				0	3
878075.080474333	878078.080474333	5.35	5.348559584002942	878086.4304291251	878080.430474333	878080.429033917	878080.430474333	878080.443081542	878086.430474333	878086.442934875	6	3.9632066669873893	0.9632066669873893	0.3313793330453336	16	666.84	-0.6	-0.506	u	1	1	0	4	1	0				0	3
878075.080474333	878078.830474333	5.35	5.348559584002942	878086.4304291251	878080.430474333	878080.429033917	878080.430474333	878080.443081542	878086.430474333	878086.442934875	6	3.9632066669873893	0.9632066669873893	0.3313793330453336	16	599.06	-0.6	-0.506	u	1	1	0	4	0	0				0	3
878075.080474333	878079.580474333	5.35	5.348559584002942	878086.4304291251	878080.430474333	878080.429033917	878080.430474333	878080.443081542	878086.430474333	878086.442934875	6	3.9632066669873893	0.9632066669873893	0.3313793330453336	16	587.29	-0.6	-0.506	u	1	1	0	4	0	0				0	3
878075.080474333	878080.330474333	5.35	5.348559584002942	878086.4304291251	878080.430474333	878080.429033917	878080.430474333	878080.443081542	878086.430474333	878086.442934875	6	3.9632066669873893	0.9632066669873893	0.3313793330453336	16	581.25	-0.6	-0.506	u	1	1	0	4	0	0				0	3
878086.4469915411	878086.4469915411	5.35	5.348410708946176	878097.7969495831	878091.796991541	878091.79540225	878091.796991541	878091.80953275	878097.796991541	878097.809560292	6	3.598579333978705	0.5985793339787051	0.2809147499501705	16	582.86	-0.6	-0.506	u	1	5	0	4	0	0				0	4
878086.4469915411	878087.1969915411	5.35	5.348410708946176	878097.7969495831	878091.796991541	878091.79540225	878091.796991541	878091.80953275	878097.796991541	878097.809560292	6	3.598579333978705	0.5985793339787051	0.2809147499501705	16	547.02	-0.6	-0.506	u	1	5	0	4	0	0				0	4
878086.4469915411	878087.9469915411	5.35	5.348410708946176	878097.7969495831	878091.796991541	878091.79540225	878091.796991541	878091.80953275	878097.796991541	878097.809560292	6	3.598579333978705	0.5985793339787051	0.2809147499501705	16	592.23	-0.6	-0.506	u	1	5	0	4	0	0				0	4
878086.4469915411	878088.6969915411	5.35	5.348410708946176	878097.7969495831	878091.796991541	878091.79540225	878091.796991541	878091.80953275	878097.796991541	878097.809560292	6	3.598579333978705	0.5985793339787051	0.2809147499501705	16	569.8	-0.6	-0.506	u	1	5	0	4	0	0				0	4
878086.4469915411	878089.4469915411	5.35	5.348410708946176	878097.7969495831	878091.796991541	878091.79540225	878091.796991541	878091.80953275	878097.796991541	878097.809560292	6	3.598579333978705	0.5985793339787051	0.2809147499501705	16	666.22	-0.6	-0.506	u	1	5	0	4	1	0				0	4
878086.4469915411	878090.1969915411	5.35	5.348410708946176	878097.7969495831	878091.796991541	878091.79540225	878091.796991541	878091.80953275	878097.796991541	878097.809560292	6	3.598579333978705	0.5985793339787051	0.2809147499501705	16	559.79	-0.6	-0.506	u	1	5	0	4	0	0				0	4
878086.4469915411	878090.9469915411	5.35	5.348410708946176	878097.7969495831	878091.796991541	878091.79540225	878091.796991541	878091.80953275	878097.796991541	878097.809560292	6	3.598579333978705	0.5985793339787051	0.2809147499501705	16	571.19	-0.6	-0.506	u	1	5	0	4	0	0				0	4
878086.4469915411	878091.6969915411	5.35	5.348410708946176	878097.7969495831	878091.796991541	878091.79540225	878091.796991541	878091.80953275	878097.796991541	878097.809560292	6	3.598579333978705	0.5985793339787051	0.2809147499501705	16	594.07	-0.6	-0.506	u	1	5	0	4	0	0				0	4
878097.813512041	878097.813512041	5.35	5.348618209012784	878109.1634732911	878103.163512041	878103.16213025	878103.163512041	878103.176254917	878109.163512041	878109.176154417	6	2.896411709021777	0.6464117090217769	0.2980210840469226	16	580.14	-0.6	-0.506	y	1	5	0	3	0	0				0	5
878097.813512041	878098.563512041	5.35	5.348618209012784	878109.1634732911	878103.163512041	878103.16213025	878103.163512041	878103.176254917	878109.163512041	878109.176154417	6	2.896411709021777	0.6464117090217769	0.2980210840469226	16	579.28	-0.6	-0.506	y	1	5	0	3	0	0				0	5
878097.813512041	878099.313512041	5.35	5.348618209012784	878109.1634732911	878103.163512041	878103.16213025	878103.163512041	878103.176254917	878109.163512041	878109.176154417	6	2.896411709021777	0.6464117090217769	0.2980210840469226	16	572.1	-0.6	-0.506	y	1	5	0	3	0	0				0	5
878097.813512041	878100.063512041	5.35	5.348618209012784	878109.1634732911	878103.163512041	878103.16213025	878103.163512041	878103.176254917	878109.163512041	878109.176154417	6	2.896411709021777	0.6464117090217769	0.2980210840469226	16	678.2	-0.6	-0.506	y	1	5	0	3	1	0				0	5
878097.813512041	878100.813512041	5.35	5.348618209012784	878109.1634732911	878103.163512041	878103.16213025	878103.163512041	878103.176254917	878109.163512041	878109.176154417	6	2.896411709021777	0.6464117090217769	0.2980210840469226	16	562.29	-0.6	-0.506	y	1	5	0	3	0	0				0	5
878097.813512041	878101.563512041	5.35	5.348618209012784	878109.1634732911	878103.163512041	878103.16213025	878103.163512041	878103.176254917	878109.163512041	878109.176154417	6	2.896411709021777	0.6464117090217769	0.2980210840469226	16	572.98	-0.6	-0.506	y	1	5	0	3	0	0				0	5
878097.813512041	878102.313512041	5.35	5.348618209012784	878109.1634732911	878103.163512041	878103.16213025	878103.163512041	878103.176254917	878109.163512041	878109.176154417	6	2.896411709021777	0.6464117090217769	0.2980210840469226	16	565.73	-0.6	-0.506	y	1	5	0	3	0	0				0	5
878097.813512041	878103.063512041	5.35	5.348618209012784	878109.1634732911	878103.163512041	878103.16213025	878103.163512041	878103.176254917	878109.163512041	878109.176154417	6	2.896411709021777	0.6464117090217769	0.2980210840469226	16	555.52	-0.6	-0.506	y	1	5	0	3	0	0				0	5
878109.18003575	878109.18003575	5.35	5.348968166974373	878120.5300004581	878114.53003575	878114.529003917	878114.53003575	878114.542998875	878120.53003575	878120.542939	6	3.579373416956514	3.579373416956514	0.26518183399457484	16	554.82	-0.6	-0.506	u	5	5	2	0	0	0				0	6
878109.18003575	878109.93003575	5.35	5.348968166974373	878120.5300004581	878114.53003575	878114.529003917	878114.53003575	878114.542998875	878120.53003575	878120.542939	6	3.579373416956514	3.579373416956514	0.26518183399457484	16	561.37	-0.6	-0.506	u	5	5	2	0	0	0				0	6
878109.18003575	878110.68003575	5.35	5.348968166974373	878120.5300004581	878114.53003575	878114.529003917	878114.53003575	878114.542998875	878120.53003575	878120.542939	6	3.579373416956514	3.579373416956514	0.26518183399457484	16	566.52	-0.6	-0.506	u	5	5	2	0	0	0				0	6
878109.18003575	878111.43003575	5.35	5.348968166974373	878120.5300004581	878114.53003575	878114.529003917	878114.53003575	878114.542998875	878120.53003575	878120.542939	6	3.579373416956514	3.579373416956514	0.26518183399457484	16	573.39	-0.6	-0.506	u	5	5	2	0	0	0				0	6
878109.18003575	878112.18003575	5.35	5.348968166974373	878120.5300004581	878114.53003575	878114.529003917	878114.53003575	878114.542998875	878120.53003575	878120.542939	6	3.579373416956514	3.579373416956514	0.26518183399457484	16	604.92	-0.6	-0.506	u	5	5	2	0	0	0				0	6
878109.18003575	878112.93003575	5.35	5.348968166974373	878120.5300004581	878114.53003575	878114.529003917	878114.53003575	878114.542998875	878120.53003575	878120.542939	6	3.579373416956514	3.579373416956514	0.26518183399457484	16	572.68	-0.6	-0.506	u	5	5	2	0	0	0				0	6
878109.18003575	878113.68003575	5.35	5.348968166974373	878120.5300004581	878114.53003575	878114.529003917	878114.53003575	878114.542998875	878120.53003575	878120.542939	6	3.579373416956514	3.579373416956514	0.26518183399457484	16	566.66	-0.6	-0.506	u	5	5	2	0	0	0				0	6
878109.18003575	878114.43003575	5.35	5.348968166974373	878120.5300004581	878114.53003575	878114.529003917	878114.53003575	878114.542998875	878120.53003575	878120.542939	6	3.579373416956514	3.579373416956514	0.26518183399457484	16	576.2	-0.6	-0.506	u	5	5	2	0	0	0				0	6
878120.5468754161	878120.5468754161	5.35	5.348738333908841	878131.8968427081	878125.896875416	878125.89561375	878125.896875416	878125.90892325	878131.896875416	878131.908595417	6	5.032468291930854	0.5324682919308543	0.3813677919097245	16	589.17	-0.6	-0.506	l	1	5	1	6	0	0				0	7
878120.5468754161	878121.2968754161	5.35	5.348738333908841	878131.8968427081	878125.896875416	878125.89561375	878125.896875416	878125.90892325	878131.896875416	878131.908595417	6	5.032468291930854	0.5324682919308543	0.3813677919097245	16	567.36	-0.6	-0.506	l	1	5	1	6	0	0				0	7
878120.5468754161	878122.0468754161	5.35	5.348738333908841	878131.8968427081	878125.896875416	878125.89561375	878125.896875416	878125.90892325	878131.896875416	878131.908595417	6	5.032468291930854	0.5324682919308543	0.3813677919097245	16	590.29	-0.6	-0.506	l	1	5	1	6	0	0				0	7
878120.5468754161	878122.7968754161	5.35	5.348738333908841	878131.8968427081	878125.896875416	878125.89561375	878125.896875416	878125.90892325	878131.896875416	878131.908595417	6	5.032468291930854	0.5324682919308543	0.3813677919097245	16	565.47	-0.6	-0.506	l	1	5	1	6	0	0				0	7
878120.5468754161	878123.5468754161	5.35	5.348738333908841	878131.8968427081	878125.896875416	878125.89561375	878125.896875416	878125.90892325	878131.896875416	878131.908595417	6	5.032468291930854	0.5324682919308543	0.3813677919097245	16	565.28	-0.6	-0.506	l	1	5	1	6	0	0				0	7
878120.5468754161	878124.2968754161	5.35	5.348738333908841	878131.8968427081	878125.896875416	878125.89561375	878125.896875416	878125.90892325	878131.896875416	878131.908595417	6	5.032468291930854	0.5324682919308543	0.3813677919097245	16	548.05	-0.6	-0.506	l	1	5	1	6	0	0				0	7
878120.5468754161	878125.0468754161	5.35	5.348738333908841	878131.8968427081	878125.896875416	878125.89561375	878125.896875416	878125.90892325	878131.896875416	878131.908595417	6	5.032468291930854	0.5324682919308543	0.3813677919097245	16	626.65	-0.6	-0.506	l	1	5	1	6	1	0				0	7
878120.5468754161	878125.7968754161	5.35	5.348738333908841	878131.8968427081	878125.896875416	878125.89561375	878125.896875416	878125.90892325	878131.896875416	878131.908595417	6	5.032468291930854	0.5324682919308543	0.3813677919097245	16	574.33	-0.6	-0.506	l	1	5	1	6	0	0				0	7
878131.912780166	878131.912780166	5.35	5.3471879590069875	878143.2642256251	878137.262780166	878137.259968125	878137.262780166	878137.264015792	878143.262780166	878143.2640845	6	5.108193416963331	0.6081934169633314	0.3497579579707235	16	590.16	-0.6	-0.506	l	1	5	1	6	0	0				0	8
878131.912780166	878132.662780166	5.35	5.3471879590069875	878143.2642256251	878137.262780166	878137.259968125	878137.262780166	878137.264015792	878143.262780166	878143.2640845	6	5.108193416963331	0.6081934169633314	0.3497579579707235	16	587.83	-0.6	-0.506	l	1	5	1	6	0	0				0	8
878131.912780166	878133.412780166	5.35	5.3471879590069875	878143.2642256251	878137.262780166	878137.259968125	878137.262780166	878137.264015792	878143.262780166	878143.2640845	6	5.108193416963331	0.6081934169633314	0.3497579579707235	16	567.88	-0.6	-0.506	l	1	5	1	6	0	0				0	8
878131.912780166	878134.162780166	5.35	5.3471879590069875	878143.2642256251	878137.262780166	878137.259968125	878137.262780166	878137.264015792	878143.262780166	878143.2640845	6	5.108193416963331	0.6081934169633314	0.3497579579707235	16	558.11	-0.6	-0.506	l	1	5	1	6	0	0				0	8
878131.912780166	878134.912780166	5.35	5.3471879590069875	878143.2642256251	878137.262780166	878137.259968125	878137.262780166	878137.264015792	878143.262780166	878143.2640845	6	5.108193416963331	0.6081934169633314	0.3497579579707235	16	578.42	-0.6	-0.506	l	1	5	1	6	0	0				0	8
878131.912780166	878135.662780166	5.35	5.3471879590069875	878143.2642256251	878137.262780166	878137.259968125	878137.262780166	878137.264015792	878143.262780166	878143.2640845	6	5.108193416963331	0.6081934169633314	0.3497579579707235	16	572.88	-0.6	-0.506	l	1	5	1	6	0	0				0	8
878131.912780166	878136.412780166	5.35	5.3471879590069875	878143.2642256251	878137.262780166	878137.259968125	878137.262780166	878137.264015792	878143.262780166	878143.2640845	6	5.108193416963331	0.6081934169633314	0.3497579579707235	16	623.23	-0.6	-0.506	l	1	5	1	6	1	0				0	8
878131.912780166	878137.162780166	5.35	5.3471879590069875	878143.2642256251	878137.262780166	878137.259968125	878137.262780166	878137.264015792	878143.262780166	878143.2640845	6	5.108193416963331	0.6081934169633314	0.3497579579707235	16	593.72	-0.6	-0.506	l	1	5	1	6	0	0				0	8
878143.270163125	878143.270163125	5.35	5.344079333008267	878154.6201242501	878148.620163125	878148.614242458	878148.620163125	878148.6275295	878154.620163125	878154.627404167	6	5.024735208018683	0.5247352080186829	0.3435330420034006	16	564.66	-0.6	-0.506	l	1	5	1	6	0	0				0	9
878143.270163125	878144.020163125	5.35	5.344079333008267	878154.6201242501	878148.620163125	878148.614242458	878148.620163125	878148.6275295	878154.620163125	878154.627404167	6	5.024735208018683	0.5247352080186829	0.3435330420034006	16	574.68	-0.6	-0.506	l	1	5	1	6	0	0				0	9
878143.270163125	878144.770163125	5.35	5.344079333008267	878154.6201242501	878148.620163125	878148.614242458	878148.620163125	878148.6275295	878154.620163125	878154.627404167	6	5.024735208018683	0.5247352080186829	0.3435330420034006	16	555.23	-0.6	-0.506	l	1	5	1	6	0	0				0	9
878143.270163125	878145.520163125	5.35	5.344079333008267	878154.6201242501	878148.620163125	878148.614242458	878148.620163125	878148.6275295	878154.620163125	878154.627404167	6	5.024735208018683	0.5247352080186829	0.3435330420034006	16	582.59	-0.6	-0.506	l	1	5	1	6	0	0				0	9
878143.270163125	878146.270163125	5.35	5.344079333008267	878154.6201242501	878148.620163125	878148.614242458	878148.620163125	878148.6275295	878154.620163125	878154.627404167	6	5.024735208018683	0.5247352080186829	0.3435330420034006	16	572.92	-0.6	-0.506	l	1	5	1	6	0	0				0	9
878143.270163125	878147.020163125	5.35	5.344079333008267	878154.6201242501	878148.620163125	878148.614242458	878148.620163125	878148.6275295	878154.620163125	878154.627404167	6	5.024735208018683	0.5247352080186829	0.3435330420034006	16	561.54	-0.6	-0.506	l	1	5	1	6	0	0				0	9
878143.270163125	878147.770163125	5.35	5.344079333008267	878154.6201242501	878148.620163125	878148.614242458	878148.620163125	878148.6275295	878154.620163125	878154.627404167	6	5.024735208018683	0.5247352080186829	0.3435330420034006	16	613.46	-0.6	-0.506	l	1	5	1	6	1	0				0	9
878143.270163125	878148.520163125	5.35	5.344079333008267	878154.6201242501	878148.620163125	878148.614242458	878148.620163125	878148.6275295	878154.620163125	878154.627404167	6	5.024735208018683	0.5247352080186829	0.3435330420034006	16	589.97	-0.6	-0.506	l	1	5	1	6	0	0				0	9
878154.633249208	878154.633249208	5.35	5.348825084045529	878165.9832086251	878159.983249208	878159.982074292	878159.983249208	878159.99389625	878165.983249208	878165.994067292	6	4.961592584033497	0.4615925840334967	0.2688523329561576	16	568.84	-0.6	-0.506	i	0	5	1	6	0	0				0	10
878154.633249208	878155.383249208	5.35	5.348825084045529	878165.9832086251	878159.983249208	878159.982074292	878159.983249208	878159.99389625	878165.983249208	878165.994067292	6	4.961592584033497	0.4615925840334967	0.2688523329561576	16	587.73	-0.6	-0.506	i	0	5	1	6	0	0				0	10
878154.633249208	878156.133249208	5.35	5.348825084045529	878165.9832086251	878159.983249208	878159.982074292	878159.983249208	878159.99389625	878165.983249208	878165.994067292	6	4.961592584033497	0.4615925840334967	0.2688523329561576	16	599.67	-0.6	-0.506	i	0	5	1	6	0	0				0	10
878154.633249208	878156.883249208	5.35	5.348825084045529	878165.9832086251	878159.983249208	878159.982074292	878159.983249208	878159.99389625	878165.983249208	878165.994067292	6	4.961592584033497	0.4615925840334967	0.2688523329561576	16	579.69	-0.6	-0.506	i	0	5	1	6	0	0				0	10
878154.633249208	878157.633249208	5.35	5.348825084045529	878165.9832086251	878159.983249208	878159.982074292	878159.983249208	878159.99389625	878165.983249208	878165.994067292	6	4.961592584033497	0.4615925840334967	0.2688523329561576	16	594.24	-0.6	-0.506	i	0	5	1	6	0	0				0	10
878154.633249208	878158.383249208	5.35	5.348825084045529	878165.9832086251	878159.983249208	878159.982074292	878159.983249208	878159.99389625	878165.983249208	878165.994067292	6	4.961592584033497	0.4615925840334967	0.2688523329561576	16	630.2	-0.6	-0.506	i	0	5	1	6	0	0				0	10
878154.633249208	878159.133249208	5.35	5.348825084045529	878165.9832086251	878159.983249208	878159.982074292	878159.983249208	878159.99389625	878165.983249208	878165.994067292	6	4.961592584033497	0.4615925840334967	0.2688523329561576	16	632.7	-0.6	-0.506	i	0	5	1	6	1	0				0	10
878154.633249208	878159.883249208	5.35	5.348825084045529	878165.9832086251	878159.983249208	878159.982074292	878159.983249208	878159.99389625	878165.983249208	878165.994067292	6	4.961592584033497	0.4615925840334967	0.2688523329561576	16	636.5	-0.6	-0.506	i	0	5	1	6	0	0				0	10
878169.9981934581	878169.9981934581	5.35	5.345921041909605	878181.3481507081	878175.348193458	878175.3441145	878175.348193458	878175.348823917	878181.348193458	878181.348759833	6			0.42775337502826005	16	643.0	-0.6	-0.506		3	5	1	4	0	1	l	1	1.1041028749896213	0	11
878169.9981934581	878170.7481934581	5.35	5.345921041909605	878181.3481507081	878175.348193458	878175.3441145	878175.348193458	878175.348823917	878181.348193458	878181.348759833	6			0.42775337502826005	16	605.23	-0.6	-0.506		3	5	1	4	0	1	l	1	1.1041028749896213	0	11
878169.9981934581	878171.4981934581	5.35	5.345921041909605	878181.3481507081	878175.348193458	878175.3441145	878175.348193458	878175.348823917	878181.348193458	878181.348759833	6			0.42775337502826005	16	633.44	-0.6	-0.506		3	5	1	4	0	1	l	1	1.1041028749896213	0	11
878169.9981934581	878172.2481934581	5.35	5.345921041909605	878181.3481507081	878175.348193458	878175.3441145	878175.348193458	878175.348823917	878181.348193458	878181.348759833	6			0.42775337502826005	16	610.22	-0.6	-0.506		3	5	1	4	0	1	l	1	1.1041028749896213	0	11
878169.9981934581	878172.9981934581	5.35	5.345921041909605	878181.3481507081	878175.348193458	878175.3441145	878175.348193458	878175.348823917	878181.348193458	878181.348759833	6			0.42775337502826005	16	637.25	-0.6	-0.506		3	5	1	4	1	1	l	1	1.1041028749896213	0	11
878169.9981934581	878173.7481934581	5.35	5.345921041909605	878181.3481507081	878175.348193458	878175.3441145	878175.348193458	878175.348823917	878181.348193458	878181.348759833	6			0.42775337502826005	16	641.23	-0.6	-0.506		3	5	1	4	0	1	l	1	1.1041028749896213	0	11
878169.9981934581	878174.4981934581	5.35	5.345921041909605	878181.3481507081	878175.348193458	878175.3441145	878175.348193458	878175.348823917	878181.348193458	878181.348759833	6			0.42775337502826005	16	630.0	-0.6	-0.506		3	5	1	4	0	1	l	1	1.1041028749896213	0	11
878169.9981934581	878175.2481934581	5.35	5.345921041909605	878181.3481507081	878175.348193458	878175.3441145	878175.348193458	878175.348823917	878181.348193458	878181.348759833	6			0.42775337502826005	16	634.53	-0.6	-0.506		3	5	1	4	0	1	l	1	1.1041028749896213	0	11
878181.355025708	878181.355025708	5.35	5.3426131249871105	878192.704981083	878186.705025708	878186.697638833	878186.705025708	878186.710487708	878192.705025708	878192.709458958	6	6.510463792015798	3.5104637920157984	0.8450272079790011	16	621.72	-0.6	-0.506	y	3	5	1	4	0	0				0	12
878181.355025708	878182.105025708	5.35	5.3426131249871105	878192.704981083	878186.705025708	878186.697638833	878186.705025708	878186.710487708	878192.705025708	878192.709458958	6	6.510463792015798	3.5104637920157984	0.8450272079790011	16	640.57	-0.6	-0.506	y	3	5	1	4	0	0				0	12
878181.355025708	878182.855025708	5.35	5.3426131249871105	878192.704981083	878186.705025708	878186.697638833	878186.705025708	878186.710487708	878192.705025708	878192.709458958	6	6.510463792015798	3.5104637920157984	0.8450272079790011	16	629.22	-0.6	-0.506	y	3	5	1	4	0	0				0	12
878181.355025708	878183.605025708	5.35	5.3426131249871105	878192.704981083	878186.705025708	878186.697638833	878186.705025708	878186.710487708	878192.705025708	878192.709458958	6	6.510463792015798	3.5104637920157984	0.8450272079790011	16	617.27	-0.6	-0.506	y	3	5	1	4	0	0				0	12
878181.355025708	878184.355025708	5.35	5.3426131249871105	878192.704981083	878186.705025708	878186.697638833	878186.705025708	878186.710487708	878192.705025708	878192.709458958	6	6.510463792015798	3.5104637920157984	0.8450272079790011	16	578.0	-0.6	-0.506	y	3	5	1	4	1	0				0	12
878181.355025708	878185.105025708	5.35	5.3426131249871105	878192.704981083	878186.705025708	878186.697638833	878186.705025708	878186.710487708	878192.705025708	878192.709458958	6	6.510463792015798	3.5104637920157984	0.8450272079790011	16	644.66	-0.6	-0.506	y	3	5	1	4	0	0				0	12
878181.355025708	878185.855025708	5.35	5.3426131249871105	878192.704981083	878186.705025708	878186.697638833	878186.705025708	878186.710487708	878192.705025708	878192.709458958	6	6.510463792015798	3.5104637920157984	0.8450272079790011	16	646.98	-0.6	-0.506	y	3	5	1	4	0	0				0	12
878181.355025708	878186.605025708	5.35	5.3426131249871105	878192.704981083	878186.705025708	878186.697638833	878186.705025708	878186.710487708	878192.705025708	878192.709458958	6	6.510463792015798	3.5104637920157984	0.8450272079790011	16	648.06	-0.6	-0.506	y	3	5	1	4	0	0				0	12
878192.714981041	878192.714981041	5.35	5.349422041908838	878204.0649349161	878198.064981041	878198.064403083	878198.064981041	878198.077118292	878204.064981041	878204.076673708	6			0.36090520792640746	16	626.94	-0.6	-0.506		3	5	1	6	0	0				0	13
878192.714981041	878193.464981041	5.35	5.349422041908838	878204.0649349161	878198.064981041	878198.064403083	878198.064981041	878198.077118292	878204.064981041	878204.076673708	6			0.36090520792640746	16	654.45	-0.6	-0.506		3	5	1	6	0	0				0	13
878192.714981041	878194.214981041	5.35	5.349422041908838	878204.0649349161	878198.064981041	878198.064403083	878198.064981041	878198.077118292	878204.064981041	878204.076673708	6			0.36090520792640746	16	636.58	-0.6	-0.506		3	5	1	6	0	0				0	13
878192.714981041	878194.964981041	5.35	5.349422041908838	878204.0649349161	878198.064981041	878198.064403083	878198.064981041	878198.077118292	878204.064981041	878204.076673708	6			0.36090520792640746	16	646.71	-0.6	-0.506		3	5	1	6	0	0				0	13
878192.714981041	878195.714981041	5.35	5.349422041908838	878204.0649349161	878198.064981041	878198.064403083	878198.064981041	878198.077118292	878204.064981041	878204.076673708	6			0.36090520792640746	16	634.05	-0.6	-0.506		3	5	1	6	0	0				0	13
878192.714981041	878196.464981041	5.35	5.349422041908838	878204.0649349161	878198.064981041	878198.064403083	878198.064981041	878198.077118292	878204.064981041	878204.076673708	6			0.36090520792640746	16	649.59	-0.6	-0.506		3	5	1	6	0	0				0	13
878192.714981041	878197.214981041	5.35	5.349422041908838	878204.0649349161	878198.064981041	878198.064403083	878198.064981041	878198.077118292	878204.064981041	878204.076673708	6			0.36090520792640746	16	615.61	-0.6	-0.506		3	5	1	6	1	0				0	13
878192.714981041	878197.964981041	5.35	5.349422041908838	878204.0649349161	878198.064981041	878198.064403083	878198.064981041	878198.077118292	878204.064981041	878204.076673708	6			0.36090520792640746	16	654.81	-0.6	-0.506		3	5	1	6	0	0				0	13
878208.080544	878208.080544	5.35	5.349508374929428	878219.4304989581	878213.430544	878213.430052375	878213.430544	878213.4425925	878219.430544	878219.431928417	6	3.7641690419986844	1.5141690419986844	0.2794581250054762	16	647.25	-0.6	-0.506	u	0	5	0	3	0	1	v	0	0.9706964159850031	0	14
878208.080544	878208.830544	5.35	5.349508374929428	878219.4304989581	878213.430544	878213.430052375	878213.430544	878213.4425925	878219.430544	878219.431928417	6	3.7641690419986844	1.5141690419986844	0.2794581250054762	16	623.54	-0.6	-0.506	u	0	5	0	3	0	1	v	0	0.9706964159850031	0	14
878208.080544	878209.580544	5.35	5.349508374929428	878219.4304989581	878213.430544	878213.430052375	878213.430544	878213.4425925	878219.430544	878219.431928417	6	3.7641690419986844	1.5141690419986844	0.2794581250054762	16	626.89	-0.6	-0.506	u	0	5	0	3	0	1	v	0	0.9706964159850031	0	14
878208.080544	878210.330544	5.35	5.349508374929428	878219.4304989581	878213.430544	878213.430052375	878213.430544	878213.4425925	878219.430544	878219.431928417	6	3.7641690419986844	1.5141690419986844	0.2794581250054762	16	609.07	-0.6	-0.506	u	0	5	0	3	1	1	v	0	0.9706964159850031	0	14
878208.080544	878211.080544	5.35	5.349508374929428	878219.4304989581	878213.430544	878213.430052375	878213.430544	878213.4425925	878219.430544	878219.431928417	6	3.7641690419986844	1.5141690419986844	0.2794581250054762	16	675.62	-0.6	-0.506	u	0	5	0	3	0	1	v	0	0.9706964159850031	0	14
878208.080544	878211.830544	5.35	5.349508374929428	878219.4304989581	878213.430544	878213.430052375	878213.430544	878213.4425925	878219.430544	878219.431928417	6	3.7641690419986844	1.5141690419986844	0.2794581250054762	16	676.74	-0.6	-0.506	u	0	5	0	3	0	1	v	0	0.9706964159850031	0	14
878208.080544	878212.580544	5.35	5.349508374929428	878219.4304989581	878213.430544	878213.430052375	878213.430544	878213.4425925	878219.430544	878219.431928417	6	3.7641690419986844	1.5141690419986844	0.2794581250054762	16	646.31	-0.6	-0.506	u	0	5	0	3	0	1	v	0	0.9706964159850031	0	14
878208.080544	878213.330544	5.35	5.349508374929428	878219.4304989581	878213.430544	878213.430052375	878213.430544	878213.4425925	878219.430544	878219.431928417	6	3.7641690419986844	1.5141690419986844	0.2794581250054762	16	631.42	-0.6	-0.506	u	0	5	0	3	0	1	v	0	0.9706964159850031	0	14
878219.4383114161	878219.4383114161	5.35	5.343587958952412	878230.7882647081	878224.788311416	878224.781899375	878224.788311416	878224.79397225	878230.788311416	878230.793721292	6	6.404701041872613	4.904701041872613	0.9296534169698134	16	648.96	-0.6	-0.506	v	3	5	0	2	0	0				0	15
878219.4383114161	878220.1883114161	5.35	5.343587958952412	878230.7882647081	878224.788311416	878224.781899375	878224.788311416	878224.79397225	878230.788311416	878230.793721292	6	6.404701041872613	4.904701041872613	0.9296534169698134	16	652.67	-0.6	-0.506	v	3	5	0	2	0	0				0	15
878219.4383114161	878220.9383114161	5.35	5.343587958952412	878230.7882647081	878224.788311416	878224.781899375	878224.788311416	878224.79397225	878230.788311416	878230.793721292	6	6.404701041872613	4.904701041872613	0.9296534169698134	16	650.48	-0.6	-0.506	v	3	5	0	2	1	0				0	15
878219.4383114161	878221.6883114161	5.35	5.343587958952412	878230.7882647081	878224.788311416	878224.781899375	878224.788311416	878224.79397225	878230.788311416	878230.793721292	6	6.404701041872613	4.904701041872613	0.9296534169698134	16	629.82	-0.6	-0.506	v	3	5	0	2	0	0				0	15
878219.4383114161	878222.4383114161	5.35	5.343587958952412	878230.7882647081	878224.788311416	878224.781899375	878224.788311416	878224.79397225	878230.788311416	878230.793721292	6	6.404701041872613	4.904701041872613	0.9296534169698134	16	625.33	-0.6	-0.506	v	3	5	0	2	0	0				0	15
878219.4383114161	878223.1883114161	5.35	5.343587958952412	878230.7882647081	878224.788311416	878224.781899375	878224.788311416	878224.79397225	878230.788311416	878230.793721292	6	6.404701041872613	4.904701041872613	0.9296534169698134	16	600.85	-0.6	-0.506	v	3	5	0	2	0	0				0	15
878219.4383114161	878223.9383114161	5.35	5.343587958952412	878230.7882647081	878224.788311416	878224.781899375	878224.788311416	878224.79397225	878230.788311416	878230.793721292	6	6.404701041872613	4.904701041872613	0.9296534169698134	16	591.81	-0.6	-0.506	v	3	5	0	2	0	0				0	15
878219.4383114161	878224.6883114161	5.35	5.343587958952412	878230.7882647081	878224.788311416	878224.781899375	878224.788311416	878224.79397225	878230.788311416	878230.793721292	6	6.404701041872613	4.904701041872613	0.9296534169698134	16	578.91	-0.6	-0.506	v	3	5	0	2	0	0				0	15
878230.799827166	878230.799827166	5.35	5.348588666995056	878242.149778458	878236.149827166	878236.148415833	878236.149827166	878236.160466833	878242.149827166	878242.15919175	6	3.627879751031287	0.627879751031287	0.5946771670132875	16	572.14	-0.6	-0.506	u	1	5	0	4	0	0				0	16
878230.799827166	878231.549827166	5.35	5.348588666995056	878242.149778458	878236.149827166	878236.148415833	878236.149827166	878236.160466833	878242.149827166	878242.15919175	6	3.627879751031287	0.627879751031287	0.5946771670132875	16	587.5	-0.6	-0.506	u	1	5	0	4	0	0				0	16
878230.799827166	878232.299827166	5.35	5.348588666995056	878242.149778458	878236.149827166	878236.148415833	878236.149827166	878236.160466833	878242.149827166	878242.15919175	6	3.627879751031287	0.627879751031287	0.5946771670132875	16	598.12	-0.6	-0.506	u	1	5	0	4	0	0				0	16
878230.799827166	878233.049827166	5.35	5.348588666995056	878242.149778458	878236.149827166	878236.148415833	878236.149827166	878236.160466833	878242.149827166	878242.15919175	6	3.627879751031287	0.627879751031287	0.5946771670132875	16	591.91	-0.6	-0.506	u	1	5	0	4	0	0				0	16
878230.799827166	878233.799827166	5.35	5.348588666995056	878242.149778458	878236.149827166	878236.148415833	878236.149827166	878236.160466833	878242.149827166	878242.15919175	6	3.627879751031287	0.627879751031287	0.5946771670132875	16	635.88	-0.6	-0.506	u	1	5	0	4	1	0				0	16
878230.799827166	878234.549827166	5.35	5.348588666995056	878242.149778458	878236.149827166	878236.148415833	878236.149827166	878236.160466833	878242.149827166	878242.15919175	6	3.627879751031287	0.627879751031287	0.5946771670132875	16	599.61	-0.6	-0.506	u	1	5	0	4	0	0				0	16
878230.799827166	878235.299827166	5.35	5.348588666995056	878242.149778458	878236.149827166	878236.148415833	878236.149827166	878236.160466833	878242.149827166	878242.15919175	6	3.627879751031287	0.627879751031287	0.5946771670132875	16	609.32	-0.6	-0.506	u	1	5	0	4	0	0				0	16
878230.799827166	878236.049827166	5.35	5.348588666995056	878242.149778458	878236.149827166	878236.148415833	878236.149827166	878236.160466833	878242.149827166	878242.15919175	6	3.627879751031287	0.627879751031287	0.5946771670132875	16	638.7	-0.6	-0.506	u	1	5	0	4	0	0				0	16
878242.164778416	878242.164778416	5.35	5.345698416931555	878253.5147295	878247.514778416	878247.510476833	878247.514778416	878247.515226417	878253.514778416	878253.51525975	6	2.46289337601047	0.9628933760104701	0.2609934159554541	16	621.4	-0.6	-0.506	v	1	5	0	2	0	0				0	17
878242.164778416	878242.914778416	5.35	5.345698416931555	878253.5147295	878247.514778416	878247.510476833	878247.514778416	878247.515226417	878253.514778416	878253.51525975	6	2.46289337601047	0.9628933760104701	0.2609934159554541	16	609.15	-0.6	-0.506	v	1	5	0	2	0	0				0	17
878242.164778416	878243.664778416	5.35	5.345698416931555	878253.5147295	878247.514778416	878247.510476833	878247.514778416	878247.515226417	878253.514778416	878253.51525975	6	2.46289337601047	0.9628933760104701	0.2609934159554541	16	663.09	-0.6	-0.506	v	1	5	0	2	1	0				0	17
878242.164778416	878244.414778416	5.35	5.345698416931555	878253.5147295	878247.514778416	878247.510476833	878247.514778416	878247.515226417	878253.514778416	878253.51525975	6	2.46289337601047	0.9628933760104701	0.2609934159554541	16	564.74	-0.6	-0.506	v	1	5	0	2	0	0				0	17
878242.164778416	878245.164778416	5.35	5.345698416931555	878253.5147295	878247.514778416	878247.510476833	878247.514778416	878247.515226417	878253.514778416	878253.51525975	6	2.46289337601047	0.9628933760104701	0.2609934159554541	16	601.06	-0.6	-0.506	v	1	5	0	2	0	0				0	17
878242.164778416	878245.914778416	5.35	5.345698416931555	878253.5147295	878247.514778416	878247.510476833	878247.514778416	878247.515226417	878253.514778416	878253.51525975	6	2.46289337601047	0.9628933760104701	0.2609934159554541	16	605.1	-0.6	-0.506	v	1	5	0	2	0	0				0	17
878242.164778416	878246.664778416	5.35	5.345698416931555	878253.5147295	878247.514778416	878247.510476833	878247.514778416	878247.515226417	878253.514778416	878253.51525975	6	2.46289337601047	0.9628933760104701	0.2609934159554541	16	600.17	-0.6	-0.506	v	1	5	0	2	0	0				0	17
878242.164778416	878247.414778416	5.35	5.345698416931555	878253.5147295	878247.514778416	878247.510476833	878247.514778416	878247.515226417	878253.514778416	878253.51525975	6	2.46289337601047	0.9628933760104701	0.2609934159554541	16	566.37	-0.6	-0.506	v	1	5	0	2	0	0				0	17
878253.5216045	878253.5216045	5.35	5.3424700000323355	878264.8715541661	878258.8716045	878258.8640745	878258.8716045	878258.875710792	878264.8716045	878264.877224875	6	3.6725952919805422	0.6725952919805422	0.8158000420080498	16	558.65	-0.6	-0.506	u	1	5	0	4	0	0				0	18
878253.5216045	878254.2716045	5.35	5.3424700000323355	878264.8715541661	878258.8716045	878258.8640745	878258.8716045	878258.875710792	878264.8716045	878264.877224875	6	3.6725952919805422	0.6725952919805422	0.8158000420080498	16	580.16	-0.6	-0.506	u	1	5	0	4	0	0				0	18
878253.5216045	878255.0216045	5.35	5.3424700000323355	878264.8715541661	878258.8716045	878258.8640745	878258.8716045	878258.875710792	878264.8716045	878264.877224875	6	3.6725952919805422	0.6725952919805422	0.8158000420080498	16	588.48	-0.6	-0.506	u	1	5	0	4	0	0				0	18
878253.5216045	878255.7716045	5.35	5.3424700000323355	878264.8715541661	878258.8716045	878258.8640745	878258.8716045	878258.875710792	878264.8716045	878264.877224875	6	3.6725952919805422	0.6725952919805422	0.8158000420080498	16	587.46	-0.6	-0.506	u	1	5	0	4	0	0				0	18
878253.5216045	878256.5216045	5.35	5.3424700000323355	878264.8715541661	878258.8716045	878258.8640745	878258.8716045	878258.875710792	878264.8716045	878264.877224875	6	3.6725952919805422	0.6725952919805422	0.8158000420080498	16	691.32	-0.6	-0.506	u	1	5	0	4	1	0				0	18
878253.5216045	878257.2716045	5.35	5.3424700000323355	878264.8715541661	878258.8716045	878258.8640745	878258.8716045	878258.875710792	878264.8716045	878264.877224875	6	3.6725952919805422	0.6725952919805422	0.8158000420080498	16	593.87	-0.6	-0.506	u	1	5	0	4	0	0				0	18
878253.5216045	878258.0216045	5.35	5.3424700000323355	878264.8715541661	878258.8716045	878258.8640745	878258.8716045	878258.875710792	878264.8716045	878264.877224875	6	3.6725952919805422	0.6725952919805422	0.8158000420080498	16	587.86	-0.6	-0.506	u	1	5	0	4	0	0				0	18
878253.5216045	878258.7716045	5.35	5.3424700000323355	878264.8715541661	878258.8716045	878258.8640745	878258.8716045	878258.875710792	878264.8716045	878264.877224875	6	3.6725952919805422	0.6725952919805422	0.8158000420080498	16	589.31	-0.6	-0.506	u	1	5	0	4	0	0				0	18
878264.883741625	878264.883741625	5.35	5.347635208046995	878276.233691166	878270.233741625	878270.231376833	878270.233741625	878270.243551625	878276.233741625	878276.242357542	6			0.5506244589341804	16	600.52	-0.6	-0.506		3	5	1	5	0	0				0	19
878264.883741625	878265.633741625	5.35	5.347635208046995	878276.233691166	878270.233741625	878270.231376833	878270.233741625	878270.243551625	878276.233741625	878276.242357542	6			0.5506244589341804	16	611.2	-0.6	-0.506		3	5	1	5	0	0				0	19
878264.883741625	878266.383741625	5.35	5.347635208046995	878276.233691166	878270.233741625	878270.231376833	878270.233741625	878270.243551625	878276.233741625	878276.242357542	6			0.5506244589341804	16	597.63	-0.6	-0.506		3	5	1	5	0	0				0	19
878264.883741625	878267.133741625	5.35	5.347635208046995	878276.233691166	878270.233741625	878270.231376833	878270.233741625	878270.243551625	878276.233741625	878276.242357542	6			0.5506244589341804	16	600.25	-0.6	-0.506		3	5	1	5	0	0				0	19
878264.883741625	878267.883741625	5.35	5.347635208046995	878276.233691166	878270.233741625	878270.231376833	878270.233741625	878270.243551625	878276.233741625	878276.242357542	6			0.5506244589341804	16	572.83	-0.6	-0.506		3	5	1	5	0	0				0	19
878264.883741625	878268.633741625	5.35	5.347635208046995	878276.233691166	878270.233741625	878270.231376833	878270.233741625	878270.243551625	878276.233741625	878276.242357542	6			0.5506244589341804	16	605.38	-0.6	-0.506		3	5	1	5	1	0				0	19
878264.883741625	878269.383741625	5.35	5.347635208046995	878276.233691166	878270.233741625	878270.231376833	878270.233741625	878270.243551625	878276.233741625	878276.242357542	6			0.5506244589341804	16	597.66	-0.6	-0.506		3	5	1	5	0	0				0	19
878264.883741625	878270.133741625	5.35	5.347635208046995	878276.233691166	878270.233741625	878270.231376833	878270.233741625	878270.243551625	878276.233741625	878276.242357542	6			0.5506244589341804	16	612.21	-0.6	-0.506		3	5	1	5	0	0				0	19
878276.2474410831	878276.2474410831	5.35	5.346324624959379	878287.5973903331	878281.597441083	878281.593765708	878281.597441083	878281.597644167	878287.597441083	878287.598283375	6	6.029431874980219	2.2794318749802187	0.2603095000376925	16	618.96	-0.6	-0.506	y	0	5	1	5	0	0				0	20
878276.2474410831	878276.9974410831	5.35	5.346324624959379	878287.5973903331	878281.597441083	878281.593765708	878281.597441083	878281.597644167	878287.597441083	878287.598283375	6	6.029431874980219	2.2794318749802187	0.2603095000376925	16	619.65	-0.6	-0.506	y	0	5	1	5	0	0				0	20
878276.2474410831	878277.7474410831	5.35	5.346324624959379	878287.5973903331	878281.597441083	878281.593765708	878281.597441083	878281.597644167	878287.597441083	878287.598283375	6	6.029431874980219	2.2794318749802187	0.2603095000376925	16	610.31	-0.6	-0.506	y	0	5	1	5	0	0				0	20
878276.2474410831	878278.4974410831	5.35	5.346324624959379	878287.5973903331	878281.597441083	878281.593765708	878281.597441083	878281.597644167	878287.597441083	878287.598283375	6	6.029431874980219	2.2794318749802187	0.2603095000376925	16	623.94	-0.6	-0.506	y	0	5	1	5	0	0				0	20
878276.2474410831	878279.2474410831	5.35	5.346324624959379	878287.5973903331	878281.597441083	878281.593765708	878281.597441083	878281.597644167	878287.597441083	878287.598283375	6	6.029431874980219	2.2794318749802187	0.2603095000376925	16	606.67	-0.6	-0.506	y	0	5	1	5	0	0				0	20
878276.2474410831	878279.9974410831	5.35	5.346324624959379	878287.5973903331	878281.597441083	878281.593765708	878281.597441083	878281.597644167	878287.597441083	878287.598283375	6	6.029431874980219	2.2794318749802187	0.2603095000376925	16	628.97	-0.6	-0.506	y	0	5	1	5	1	0				0	20
878276.2474410831	878280.7474410831	5.35	5.346324624959379	878287.5973903331	878281.597441083	878281.593765708	878281.597441083	878281.597644167	878287.597441083	878287.598283375	6	6.029431874980219	2.2794318749802187	0.2603095000376925	16	603.8	-0.6	-0.506	y	0	5	1	5	0	0				0	20
878276.2474410831	878281.4974410831	5.35	5.346324624959379	878287.5973903331	878281.597441083	878281.593765708	878281.597441083	878281.597644167	878287.597441083	878287.598283375	6	6.029431874980219	2.2794318749802187	0.2603095000376925	16	621.55	-0.6	-0.506	y	0	5	1	5	0	0				0	20
878287.604265333	878287.604265333	5.35	5.3419117499142885	878298.9542142501	878292.954265333	878292.946177083	878292.954265333	878292.959094875	878298.954265333	878298.960134583	6	5.106529166921973	1.3565291669219732	0.34651850000955164	16	631.44	-0.6	-0.506	u	0	5	1	5	0	0				0	21
878287.604265333	878288.354265333	5.35	5.3419117499142885	878298.9542142501	878292.954265333	878292.946177083	878292.954265333	878292.959094875	878298.954265333	878298.960134583	6	5.106529166921973	1.3565291669219732	0.34651850000955164	16	638.14	-0.6	-0.506	u	0	5	1	5	0	0				0	21
878287.604265333	878289.104265333	5.35	5.3419117499142885	878298.9542142501	878292.954265333	878292.946177083	878292.954265333	878292.959094875	878298.954265333	878298.960134583	6	5.106529166921973	1.3565291669219732	0.34651850000955164	16	608.6	-0.6	-0.506	u	0	5	1	5	0	0				0	21
878287.604265333	878289.854265333	5.35	5.3419117499142885	878298.9542142501	878292.954265333	878292.946177083	878292.954265333	878292.959094875	878298.954265333	878298.960134583	6	5.106529166921973	1.3565291669219732	0.34651850000955164	16	607.57	-0.6	-0.506	u	0	5	1	5	0	0				0	21
878287.604265333	878290.604265333	5.35	5.3419117499142885	878298.9542142501	878292.954265333	878292.946177083	878292.954265333	878292.959094875	878298.954265333	878298.960134583	6	5.106529166921973	1.3565291669219732	0.34651850000955164	16	587.79	-0.6	-0.506	u	0	5	1	5	0	0				0	21
878287.604265333	878291.354265333	5.35	5.3419117499142885	878298.9542142501	878292.954265333	878292.946177083	878292.954265333	878292.959094875	878298.954265333	878298.960134583	6	5.106529166921973	1.3565291669219732	0.34651850000955164	16	676.86	-0.6	-0.506	u	0	5	1	5	1	0				0	21
878287.604265333	878292.104265333	5.35	5.3419117499142885	878298.9542142501	878292.954265333	878292.946177083	878292.954265333	878292.959094875	878298.954265333	878298.960134583	6	5.106529166921973	1.3565291669219732	0.34651850000955164	16	608.67	-0.6	-0.506	u	0	5	1	5	0	0				0	21
878287.604265333	878292.854265333	5.35	5.3419117499142885	878298.9542142501	878292.954265333	878292.946177083	878292.954265333	878292.959094875	878298.954265333	878298.960134583	6	5.106529166921973	1.3565291669219732	0.34651850000955164	16	592.42	-0.6	-0.506	u	0	5	1	5	0	0				0	21
878298.965776708	878298.965776708	5.35	5.346656834008172	878310.3157250001	878304.315776708	878304.312433542	878304.315776708	878304.325902042	878310.315776708	878310.325549208	6	2.2946610420476645	0.7946610420476645	0.260642750072293	16	579.83	-0.6	-0.506	v	1	5	0	2	0	0				0	22
878298.965776708	878299.715776708	5.35	5.346656834008172	878310.3157250001	878304.315776708	878304.312433542	878304.315776708	878304.325902042	878310.315776708	878310.325549208	6	2.2946610420476645	0.7946610420476645	0.260642750072293	16	595.52	-0.6	-0.506	v	1	5	0	2	0	0				0	22
878298.965776708	878300.465776708	5.35	5.346656834008172	878310.3157250001	878304.315776708	878304.312433542	878304.315776708	878304.325902042	878310.315776708	878310.325549208	6	2.2946610420476645	0.7946610420476645	0.260642750072293	16	637.33	-0.6	-0.506	v	1	5	0	2	1	0				0	22
878298.965776708	878301.215776708	5.35	5.346656834008172	878310.3157250001	878304.315776708	878304.312433542	878304.315776708	878304.325902042	878310.315776708	878310.325549208	6	2.2946610420476645	0.7946610420476645	0.260642750072293	16	571.22	-0.6	-0.506	v	1	5	0	2	0	0				0	22
878298.965776708	878301.965776708	5.35	5.346656834008172	878310.3157250001	878304.315776708	878304.312433542	878304.315776708	878304.325902042	878310.315776708	878310.325549208	6	2.2946610420476645	0.7946610420476645	0.260642750072293	16	597.46	-0.6	-0.506	v	1	5	0	2	0	0				0	22
878298.965776708	878302.715776708	5.35	5.346656834008172	878310.3157250001	878304.315776708	878304.312433542	878304.315776708	878304.325902042	878310.315776708	878310.325549208	6	2.2946610420476645	0.7946610420476645	0.260642750072293	16	589.63	-0.6	-0.506	v	1	5	0	2	0	0				0	22
878298.965776708	878303.465776708	5.35	5.346656834008172	878310.3157250001	878304.315776708	878304.312433542	878304.315776708	878304.325902042	878310.315776708	878310.325549208	6	2.2946610420476645	0.7946610420476645	0.260642750072293	16	591.49	-0.6	-0.506	v	1	5	0	2	0	0				0	22
878298.965776708	878304.215776708	5.35	5.346656834008172	878310.3157250001	878304.315776708	878304.312433542	878304.315776708	878304.325902042	878310.315776708	878310.325549208	6	2.2946610420476645	0.7946610420476645	0.260642750072293	16	587.91	-0.6	-0.506	v	1	5	0	2	0	0				0	22
878310.3307249161	878310.3307249161	5.35	5.346303500933573	878321.680673	878315.680724916	878315.677028417	878315.680724916	878315.681621375	878321.680724916	878321.692208042	6	5.179452791926451	0.679452791926451	0.43267166591249406	16	598.16	-0.6	-0.506	l	1	5	1	6	0	0				0	23
878310.3307249161	878311.0807249161	5.35	5.346303500933573	878321.680673	878315.680724916	878315.677028417	878315.680724916	878315.681621375	878321.680724916	878321.692208042	6	5.179452791926451	0.679452791926451	0.43267166591249406	16	594.12	-0.6	-0.506	l	1	5	1	6	0	0				0	23
878310.3307249161	878311.8307249161	5.35	5.346303500933573	878321.680673	878315.680724916	878315.677028417	878315.680724916	878315.681621375	878321.680724916	878321.692208042	6	5.179452791926451	0.679452791926451	0.43267166591249406	16	594.31	-0.6	-0.506	l	1	5	1	6	0	0				0	23
878310.3307249161	878312.5807249161	5.35	5.346303500933573	878321.680673	878315.680724916	878315.677028417	878315.680724916	878315.681621375	878321.680724916	878321.692208042	6	5.179452791926451	0.679452791926451	0.43267166591249406	16	589.63	-0.6	-0.506	l	1	5	1	6	0	0				0	23
878310.3307249161	878313.3307249161	5.35	5.346303500933573	878321.680673	878315.680724916	878315.677028417	878315.680724916	878315.681621375	878321.680724916	878321.692208042	6	5.179452791926451	0.679452791926451	0.43267166591249406	16	604.0	-0.6	-0.506	l	1	5	1	6	0	0				0	23
878310.3307249161	878314.0807249161	5.35	5.346303500933573	878321.680673	878315.680724916	878315.677028417	878315.680724916	878315.681621375	878321.680724916	878321.692208042	6	5.179452791926451	0.679452791926451	0.43267166591249406	16	596.38	-0.6	-0.506	l	1	5	1	6	0	0				0	23
878310.3307249161	878314.8307249161	5.35	5.346303500933573	878321.680673	878315.680724916	878315.677028417	878315.680724916	878315.681621375	878321.680724916	878321.692208042	6	5.179452791926451	0.679452791926451	0.43267166591249406	16	642.04	-0.6	-0.506	l	1	5	1	6	1	0				0	23
878310.3307249161	878315.5807249161	5.35	5.346303500933573	878321.680673	878315.680724916	878315.677028417	878315.680724916	878315.681621375	878321.680724916	878321.692208042	6	5.179452791926451	0.679452791926451	0.43267166591249406	16	624.68	-0.6	-0.506	l	1	5	1	6	0	0				0	23
878325.696280083	878325.696280083	5.35	5.349216333939694	878337.0462300411	878331.046280083	878331.045496417	878331.046280083	878331.059712208	878337.046280083	878337.046734833	6	4.464466374949552	0.7144663749495521	0.4280038750730455	16	608.79	-0.6	-0.506	i	1	5	1	5	0	1	l	1	0.8655449589714408	0	24
878325.696280083	878326.446280083	5.35	5.349216333939694	878337.0462300411	878331.046280083	878331.045496417	878331.046280083	878331.059712208	878337.046280083	878337.046734833	6	4.464466374949552	0.7144663749495521	0.4280038750730455	16	621.74	-0.6	-0.506	i	1	5	1	5	0	1	l	1	0.8655449589714408	0	24
878325.696280083	878327.196280083	5.35	5.349216333939694	878337.0462300411	878331.046280083	878331.045496417	878331.046280083	878331.059712208	878337.046280083	878337.046734833	6	4.464466374949552	0.7144663749495521	0.4280038750730455	16	603.74	-0.6	-0.506	i	1	5	1	5	0	1	l	1	0.8655449589714408	0	24
878325.696280083	878327.946280083	5.35	5.349216333939694	878337.0462300411	878331.046280083	878331.045496417	878331.046280083	878331.059712208	878337.046280083	878337.046734833	6	4.464466374949552	0.7144663749495521	0.4280038750730455	16	594.54	-0.6	-0.506	i	1	5	1	5	0	1	l	1	0.8655449589714408	0	24
878325.696280083	878328.696280083	5.35	5.349216333939694	878337.0462300411	878331.046280083	878331.045496417	878331.046280083	878331.059712208	878337.046280083	878337.046734833	6	4.464466374949552	0.7144663749495521	0.4280038750730455	16	588.23	-0.6	-0.506	i	1	5	1	5	0	1	l	1	0.8655449589714408	0	24
878325.696280083	878329.446280083	5.35	5.349216333939694	878337.0462300411	878331.046280083	878331.045496417	878331.046280083	878331.059712208	878337.046280083	878337.046734833	6	4.464466374949552	0.7144663749495521	0.4280038750730455	16	642.45	-0.6	-0.506	i	1	5	1	5	1	1	l	1	0.8655449589714408	0	24
878325.696280083	878330.196280083	5.35	5.349216333939694	878337.0462300411	878331.046280083	878331.045496417	878331.046280083	878331.059712208	878337.046280083	878337.046734833	6	4.464466374949552	0.7144663749495521	0.4280038750730455	16	611.32	-0.6	-0.506	i	1	5	1	5	0	1	l	1	0.8655449589714408	0	24
878325.696280083	878330.946280083	5.35	5.349216333939694	878337.0462300411	878331.046280083	878331.045496417	878331.046280083	878331.059712208	878337.046280083	878337.046734833	6	4.464466374949552	0.7144663749495521	0.4280038750730455	16	615.12	-0.6	-0.506	i	1	5	1	5	0	1	l	1	0.8655449589714408	0	24
878337.0521675	878337.0521675	5.35	5.344781624968164	878348.4021165001	878342.4021675	878342.396949125	878342.4021675	878342.410064458	878348.4021675	878348.409825167	6	3.825392041937448	0.07539204193744808	0.2460723330732435	16	595.33	-0.6	-0.506	u	0	5	1	5	0	0				0	25
878337.0521675	878337.8021675	5.35	5.344781624968164	878348.4021165001	878342.4021675	878342.396949125	878342.4021675	878342.410064458	878348.4021675	878348.409825167	6	3.825392041937448	0.07539204193744808	0.2460723330732435	16	600.14	-0.6	-0.506	u	0	5	1	5	0	0				0	25
878337.0521675	878338.5521675	5.35	5.344781624968164	878348.4021165001	878342.4021675	878342.396949125	878342.4021675	878342.410064458	878348.4021675	878348.409825167	6	3.825392041937448	0.07539204193744808	0.2460723330732435	16	613.63	-0.6	-0.506	u	0	5	1	5	0	0				0	25
878337.0521675	878339.3021675	5.35	5.344781624968164	878348.4021165001	878342.4021675	878342.396949125	878342.4021675	878342.410064458	878348.4021675	878348.409825167	6	3.825392041937448	0.07539204193744808	0.2460723330732435	16	616.52	-0.6	-0.506	u	0	5	1	5	0	0				0	25
878337.0521675	878340.0521675	5.35	5.344781624968164	878348.4021165001	878342.4021675	878342.396949125	878342.4021675	878342.410064458	878348.4021675	878348.409825167	6	3.825392041937448	0.07539204193744808	0.2460723330732435	16	642.58	-0.6	-0.506	u	0	5	1	5	0	0				0	25
878337.0521675	878340.8021675	5.35	5.344781624968164	878348.4021165001	878342.4021675	878342.396949125	878342.4021675	878342.410064458	878348.4021675	878348.409825167	6	3.825392041937448	0.07539204193744808	0.2460723330732435	16	614.89	-0.6	-0.506	u	0	5	1	5	1	0				0	25
878337.0521675	878341.5521675	5.35	5.344781624968164	878348.4021165001	878342.4021675	878342.396949125	878342.4021675	878342.410064458	878348.4021675	878348.409825167	6	3.825392041937448	0.07539204193744808	0.2460723330732435	16	602.43	-0.6	-0.506	u	0	5	1	5	0	0				0	25
878337.0521675	878342.3021675	5.35	5.344781624968164	878348.4021165001	878342.4021675	878342.396949125	878342.4021675	878342.410064458	878348.4021675	878348.409825167	6	3.825392041937448	0.07539204193744808	0.2460723330732435	16	624.38	-0.6	-0.506	u	0	5	1	5	0	0				0	25
878348.4158664161	878348.4158664161	5.35	5.348169333883561	878359.765815958	878353.765866416	878353.76403575	878353.765866416	878353.775341417	878359.765866416	878359.776646708	6			0.36022537492681295	16	613.86	-0.6	-0.506		3	5	1	4	0	0				0	26
878348.4158664161	878349.1658664161	5.35	5.348169333883561	878359.765815958	878353.765866416	878353.76403575	878353.765866416	878353.775341417	878359.765866416	878359.776646708	6			0.36022537492681295	16	607.51	-0.6	-0.506		3	5	1	4	0	0				0	26
878348.4158664161	878349.9158664161	5.35	5.348169333883561	878359.765815958	878353.765866416	878353.76403575	878353.765866416	878353.775341417	878359.765866416	878359.776646708	6			0.36022537492681295	16	625.03	-0.6	-0.506		3	5	1	4	0	0				0	26
878348.4158664161	878350.6658664161	5.35	5.348169333883561	878359.765815958	878353.765866416	878353.76403575	878353.765866416	878353.775341417	878359.765866416	878359.776646708	6			0.36022537492681295	16	600.68	-0.6	-0.506		3	5	1	4	0	0				0	26
878348.4158664161	878351.4158664161	5.35	5.348169333883561	878359.765815958	878353.765866416	878353.76403575	878353.765866416	878353.775341417	878359.765866416	878359.776646708	6			0.36022537492681295	16	639.31	-0.6	-0.506		3	5	1	4	1	0				0	26
878348.4158664161	878352.1658664161	5.35	5.348169333883561	878359.765815958	878353.765866416	878353.76403575	878353.765866416	878353.775341417	878359.765866416	878359.776646708	6			0.36022537492681295	16	610.41	-0.6	-0.506		3	5	1	4	0	0				0	26
878348.4158664161	878352.9158664161	5.35	5.348169333883561	878359.765815958	878353.765866416	878353.76403575	878353.765866416	878353.775341417	878359.765866416	878359.776646708	6			0.36022537492681295	16	624.21	-0.6	-0.506		3	5	1	4	0	0				0	26
878348.4158664161	878353.6658664161	5.35	5.348169333883561	878359.765815958	878353.765866416	878353.76403575	878353.765866416	878353.775341417	878359.765866416	878359.776646708	6			0.36022537492681295	16	609.96	-0.6	-0.506		3	5	1	4	0	0				0	26
878359.783315875	878359.783315875	5.35	5.347780207986943	878371.1332652501	878365.133315875	878365.131096083	878365.133315875	878365.142002833	878371.133315875	878371.143260125	6	6.159502708003856	6.159502708003856	0.41579750005621463	16	629.78	-0.6	-0.506	y	4	5	2	0	0	0				0	27
878359.783315875	878360.533315875	5.35	5.347780207986943	878371.1332652501	878365.133315875	878365.131096083	878365.133315875	878365.142002833	878371.133315875	878371.143260125	6	6.159502708003856	6.159502708003856	0.41579750005621463	16	637.38	-0.6	-0.506	y	4	5	2	0	0	0				0	27
878359.783315875	878361.283315875	5.35	5.347780207986943	878371.1332652501	878365.133315875	878365.131096083	878365.133315875	878365.142002833	878371.133315875	878371.143260125	6	6.159502708003856	6.159502708003856	0.41579750005621463	16	636.13	-0.6	-0.506	y	4	5	2	0	0	0				0	27
878359.783315875	878362.033315875	5.35	5.347780207986943	878371.1332652501	878365.133315875	878365.131096083	878365.133315875	878365.142002833	878371.133315875	878371.143260125	6	6.159502708003856	6.159502708003856	0.41579750005621463	16	629.8	-0.6	-0.506	y	4	5	2	0	0	0				0	27
878359.783315875	878362.783315875	5.35	5.347780207986943	878371.1332652501	878365.133315875	878365.131096083	878365.133315875	878365.142002833	878371.133315875	878371.143260125	6	6.159502708003856	6.159502708003856	0.41579750005621463	16	607.12	-0.6	-0.506	y	4	5	2	0	0	0				0	27
878359.783315875	878363.533315875	5.35	5.347780207986943	878371.1332652501	878365.133315875	878365.131096083	878365.133315875	878365.142002833	878371.133315875	878371.143260125	6	6.159502708003856	6.159502708003856	0.41579750005621463	16	621.38	-0.6	-0.506	y	4	5	2	0	0	0				0	27
878359.783315875	878364.283315875	5.35	5.347780207986943	878371.1332652501	878365.133315875	878365.131096083	878365.133315875	878365.142002833	878371.133315875	878371.143260125	6	6.159502708003856	6.159502708003856	0.41579750005621463	16	607.86	-0.6	-0.506	y	4	5	2	0	0	0				0	27
878359.783315875	878365.033315875	5.35	5.347780207986943	878371.1332652501	878365.133315875	878365.131096083	878365.133315875	878365.142002833	878371.133315875	878371.143260125	6	6.159502708003856	6.159502708003856	0.41579750005621463	16	606.08	-0.6	-0.506	y	4	5	2	0	0	0				0	27
878371.148890208	878371.148890208	5.35	5.346822416991927	878382.498839208	878376.498890208	878376.495712625	878376.498890208	878376.508529458	878382.498890208	878382.509859625	6	3.566151999984868	0.5661519999848679	0.49333904101513326	16	608.01	-0.6	-0.506	u	1	1	1	4	0	0				0	28
878371.148890208	878371.898890208	5.35	5.346822416991927	878382.498839208	878376.498890208	878376.495712625	878376.498890208	878376.508529458	878382.498890208	878382.509859625	6	3.566151999984868	0.5661519999848679	0.49333904101513326	16	606.85	-0.6	-0.506	u	1	1	1	4	0	0				0	28
878371.148890208	878372.648890208	5.35	5.346822416991927	878382.498839208	878376.498890208	878376.495712625	878376.498890208	878376.508529458	878382.498890208	878382.509859625	6	3.566151999984868	0.5661519999848679	0.49333904101513326	16	599.85	-0.6	-0.506	u	1	1	1	4	0	0				0	28
878371.148890208	878373.398890208	5.35	5.346822416991927	878382.498839208	878376.498890208	878376.495712625	878376.498890208	878376.508529458	878382.498890208	878382.509859625	6	3.566151999984868	0.5661519999848679	0.49333904101513326	16	605.73	-0.6	-0.506	u	1	1	1	4	0	0				0	28
878371.148890208	878374.148890208	5.35	5.346822416991927	878382.498839208	878376.498890208	878376.495712625	878376.498890208	878376.508529458	878382.498890208	878382.509859625	6	3.566151999984868	0.5661519999848679	0.49333904101513326	16	649.69	-0.6	-0.506	u	1	1	1	4	1	0				0	28
878371.148890208	878374.898890208	5.35	5.346822416991927	878382.498839208	878376.498890208	878376.495712625	878376.498890208	878376.508529458	878382.498890208	878382.509859625	6	3.566151999984868	0.5661519999848679	0.49333904101513326	16	610.0	-0.6	-0.506	u	1	1	1	4	0	0				0	28
878371.148890208	878375.648890208	5.35	5.346822416991927	878382.498839208	878376.498890208	878376.495712625	878376.498890208	878376.508529458	878382.498890208	878382.509859625	6	3.566151999984868	0.5661519999848679	0.49333904101513326	16	587.93	-0.6	-0.506	u	1	1	1	4	0	0				0	28
878371.148890208	878376.398890208	5.35	5.346822416991927	878382.498839208	878376.498890208	878376.495712625	878376.498890208	878376.508529458	878382.498890208	878382.509859625	6	3.566151999984868	0.5661519999848679	0.49333904101513326	16	575.2	-0.6	-0.506	u	1	1	1	4	0	0				0	28
878382.5160266251	878382.5160266251	5.35	5.348119582980871	878393.8659747081	878387.866026625	878387.864146208	878387.866026625	878387.876359	878393.866026625	878393.875826833	6	3.576717249932699	0.5767172499326989	0.41135045792907476	16	560.62	-0.6	-0.506	u	1	5	1	4	0	0				0	29
878382.5160266251	878383.2660266251	5.35	5.348119582980871	878393.8659747081	878387.866026625	878387.864146208	878387.866026625	878387.876359	878393.866026625	878393.875826833	6	3.576717249932699	0.5767172499326989	0.41135045792907476	16	582.07	-0.6	-0.506	u	1	5	1	4	0	0				0	29
878382.5160266251	878384.0160266251	5.35	5.348119582980871	878393.8659747081	878387.866026625	878387.864146208	878387.866026625	878387.876359	878393.866026625	878393.875826833	6	3.576717249932699	0.5767172499326989	0.41135045792907476	16	559.84	-0.6	-0.506	u	1	5	1	4	0	0				0	29
878382.5160266251	878384.7660266251	5.35	5.348119582980871	878393.8659747081	878387.866026625	878387.864146208	878387.866026625	878387.876359	878393.866026625	878393.875826833	6	3.576717249932699	0.5767172499326989	0.41135045792907476	16	582.94	-0.6	-0.506	u	1	5	1	4	0	0				0	29
878382.5160266251	878385.5160266251	5.35	5.348119582980871	878393.8659747081	878387.866026625	878387.864146208	878387.866026625	878387.876359	878393.866026625	878393.875826833	6	3.576717249932699	0.5767172499326989	0.41135045792907476	16	624.06	-0.6	-0.506	u	1	5	1	4	1	0				0	29
878382.5160266251	878386.2660266251	5.35	5.348119582980871	878393.8659747081	878387.866026625	878387.864146208	878387.866026625	878387.876359	878393.866026625	878393.875826833	6	3.576717249932699	0.5767172499326989	0.41135045792907476	16	586.69	-0.6	-0.506	u	1	5	1	4	0	0				0	29
878382.5160266251	878387.0160266251	5.35	5.348119582980871	878393.8659747081	878387.866026625	878387.864146208	878387.866026625	878387.876359	878393.866026625	878393.875826833	6	3.576717249932699	0.5767172499326989	0.41135045792907476	16	587.95	-0.6	-0.506	u	1	5	1	4	0	0				0	29
878382.5160266251	878387.7660266251	5.35	5.348119582980871	878393.8659747081	878387.866026625	878387.864146208	878387.866026625	878387.876359	878393.866026625	878393.875826833	6	3.576717249932699	0.5767172499326989	0.41135045792907476	16	582.55	-0.6	-0.506	u	1	5	1	4	0	0				0	29
878393.881599625	878393.881599625	5.35	5.3491557079833	878405.2315489161	878399.231599625	878399.230755333	878399.231599625	878399.242945833	878405.231599625	878405.243235917	6	5.015560125000775	0.5155601250007749	0.3098534159362316	16	587.9	-0.6	-0.506	l	1	5	1	6	0	0				0	30
878393.881599625	878394.631599625	5.35	5.3491557079833	878405.2315489161	878399.231599625	878399.230755333	878399.231599625	878399.242945833	878405.231599625	878405.243235917	6	5.015560125000775	0.5155601250007749	0.3098534159362316	16	582.66	-0.6	-0.506	l	1	5	1	6	0	0				0	30
878393.881599625	878395.381599625	5.35	5.3491557079833	878405.2315489161	878399.231599625	878399.230755333	878399.231599625	878399.242945833	878405.231599625	878405.243235917	6	5.015560125000775	0.5155601250007749	0.3098534159362316	16	583.51	-0.6	-0.506	l	1	5	1	6	0	0				0	30
878393.881599625	878396.131599625	5.35	5.3491557079833	878405.2315489161	878399.231599625	878399.230755333	878399.231599625	878399.242945833	878405.231599625	878405.243235917	6	5.015560125000775	0.5155601250007749	0.3098534159362316	16	601.28	-0.6	-0.506	l	1	5	1	6	0	0				0	30
878393.881599625	878396.881599625	5.35	5.3491557079833	878405.2315489161	878399.231599625	878399.230755333	878399.231599625	878399.242945833	878405.231599625	878405.243235917	6	5.015560125000775	0.5155601250007749	0.3098534159362316	16	578.99	-0.6	-0.506	l	1	5	1	6	0	0				0	30
878393.881599625	878397.631599625	5.35	5.3491557079833	878405.2315489161	878399.231599625	878399.230755333	878399.231599625	878399.242945833	878405.231599625	878405.243235917	6	5.015560125000775	0.5155601250007749	0.3098534159362316	16	580.21	-0.6	-0.506	l	1	5	1	6	0	0				0	30
878393.881599625	878398.381599625	5.35	5.3491557079833	878405.2315489161	878399.231599625	878399.230755333	878399.231599625	878399.242945833	878405.231599625	878405.243235917	6	5.015560125000775	0.5155601250007749	0.3098534159362316	16	632.28	-0.6	-0.506	l	1	5	1	6	1	0				0	30
878393.881599625	878399.131599625	5.35	5.3491557079833	878405.2315489161	878399.231599625	878399.230755333	878399.231599625	878399.242945833	878405.231599625	878405.243235917	6	5.015560125000775	0.5155601250007749	0.3098534159362316	16	587.53	-0.6	-0.506	l	1	5	1	6	0	0				0	30
878409.247156041	878409.247156041	5.35	5.3460772089893	878420.5971065831	878414.597156041	878414.59323325	878414.597156041	878414.597395875	878420.597156041	878420.597229792	6	6.132204625988379	1.6322046259883791	0.39530524995643646	16	587.84	-0.6	-0.506	l	3	5	1	6	0	1	l	1	0.36923487507738173	0	31
878409.247156041	878409.997156041	5.35	5.3460772089893	878420.5971065831	878414.597156041	878414.59323325	878414.597156041	878414.597395875	878420.597156041	878420.597229792	6	6.132204625988379	1.6322046259883791	0.39530524995643646	16	593.35	-0.6	-0.506	l	3	5	1	6	0	1	l	1	0.36923487507738173	0	31
878409.247156041	878410.747156041	5.35	5.3460772089893	878420.5971065831	878414.597156041	878414.59323325	878414.597156041	878414.597395875	878420.597156041	878420.597229792	6	6.132204625988379	1.6322046259883791	0.39530524995643646	16	581.13	-0.6	-0.506	l	3	5	1	6	0	1	l	1	0.36923487507738173	0	31
878409.247156041	878411.497156041	5.35	5.3460772089893	878420.5971065831	878414.597156041	878414.59323325	878414.597156041	878414.597395875	878420.597156041	878420.597229792	6	6.132204625988379	1.6322046259883791	0.39530524995643646	16	593.18	-0.6	-0.506	l	3	5	1	6	0	1	l	1	0.36923487507738173	0	31
878409.247156041	878412.247156041	5.35	5.3460772089893	878420.5971065831	878414.597156041	878414.59323325	878414.597156041	878414.597395875	878420.597156041	878420.597229792	6	6.132204625988379	1.6322046259883791	0.39530524995643646	16	568.66	-0.6	-0.506	l	3	5	1	6	0	1	l	1	0.36923487507738173	0	31
878409.247156041	878412.997156041	5.35	5.3460772089893	878420.5971065831	878414.597156041	878414.59323325	878414.597156041	878414.597395875	878420.597156041	878420.597229792	6	6.132204625988379	1.6322046259883791	0.39530524995643646	16	579.05	-0.6	-0.506	l	3	5	1	6	0	1	l	1	0.36923487507738173	0	31
878409.247156041	878413.747156041	5.35	5.3460772089893	878420.5971065831	878414.597156041	878414.59323325	878414.597156041	878414.597395875	878420.597156041	878420.597229792	6	6.132204625988379	1.6322046259883791	0.39530524995643646	16	624.9	-0.6	-0.506	l	3	5	1	6	1	1	l	1	0.36923487507738173	0	31
878409.247156041	878414.497156041	5.35	5.3460772089893	878420.5971065831	878414.597156041	878414.59323325	878414.597156041	878414.597395875	878420.597156041	878420.597229792	6	6.132204625988379	1.6322046259883791	0.39530524995643646	16	583.07	-0.6	-0.506	l	3	5	1	6	0	1	l	1	0.36923487507738173	0	31
878420.6036690411	878420.6036690411	5.35	5.341867208946496	878431.9536193331	878425.953669041	878425.94553625	878425.953669041	878425.959740125	878431.953669041	878431.957601375	6	3.5902281259186566	0.5902281259186566	0.3135204999707639	16	593.04	-0.6	-0.506	u	1	5	1	4	0	0				0	32
878420.6036690411	878421.3536690411	5.35	5.341867208946496	878431.9536193331	878425.953669041	878425.94553625	878425.953669041	878425.959740125	878431.953669041	878431.957601375	6	3.5902281259186566	0.5902281259186566	0.3135204999707639	16	599.13	-0.6	-0.506	u	1	5	1	4	0	0				0	32
878420.6036690411	878422.1036690411	5.35	5.341867208946496	878431.9536193331	878425.953669041	878425.94553625	878425.953669041	878425.959740125	878431.953669041	878431.957601375	6	3.5902281259186566	0.5902281259186566	0.3135204999707639	16	591.14	-0.6	-0.506	u	1	5	1	4	0	0				0	32
878420.6036690411	878422.8536690411	5.35	5.341867208946496	878431.9536193331	878425.953669041	878425.94553625	878425.953669041	878425.959740125	878431.953669041	878431.957601375	6	3.5902281259186566	0.5902281259186566	0.3135204999707639	16	594.52	-0.6	-0.506	u	1	5	1	4	0	0				0	32
878420.6036690411	878423.6036690411	5.35	5.341867208946496	878431.9536193331	878425.953669041	878425.94553625	878425.953669041	878425.959740125	878431.953669041	878431.957601375	6	3.5902281259186566	0.5902281259186566	0.3135204999707639	16	668.09	-0.6	-0.506	u	1	5	1	4	1	0				0	32
878420.6036690411	878424.3536690411	5.35	5.341867208946496	878431.9536193331	878425.953669041	878425.94553625	878425.953669041	878425.959740125	878431.953669041	878431.957601375	6	3.5902281259186566	0.5902281259186566	0.3135204999707639	16	571.3	-0.6	-0.506	u	1	5	1	4	0	0				0	32
878420.6036690411	878425.1036690411	5.35	5.341867208946496	878431.9536193331	878425.953669041	878425.94553625	878425.953669041	878425.959740125	878431.953669041	878431.957601375	6	3.5902281259186566	0.5902281259186566	0.3135204999707639	16	578.52	-0.6	-0.506	u	1	5	1	4	0	0				0	32
878420.6036690411	878425.8536690411	5.35	5.341867208946496	878431.9536193331	878425.953669041	878425.94553625	878425.953669041	878425.959740125	878431.953669041	878431.957601375	6	3.5902281259186566	0.5902281259186566	0.3135204999707639	16	581.87	-0.6	-0.506	u	1	5	1	4	0	0				0	32
878431.962994291	878431.962994291	5.35	5.34507883398328	878443.3129459581	878437.312994291	878437.308073125	878437.312994291	878437.313434458	878443.312994291	878443.313461333	6			0.31161516695283353	16	601.6	-0.6	-0.506		3	5	1	5	0	0				0	33
878431.962994291	878432.712994291	5.35	5.34507883398328	878443.3129459581	878437.312994291	878437.308073125	878437.312994291	878437.313434458	878443.312994291	878443.313461333	6			0.31161516695283353	16	606.75	-0.6	-0.506		3	5	1	5	0	0				0	33
878431.962994291	878433.462994291	5.35	5.34507883398328	878443.3129459581	878437.312994291	878437.308073125	878437.312994291	878437.313434458	878443.312994291	878443.313461333	6			0.31161516695283353	16	599.08	-0.6	-0.506		3	5	1	5	0	0				0	33
878431.962994291	878434.212994291	5.35	5.34507883398328	878443.3129459581	878437.312994291	878437.308073125	878437.312994291	878437.313434458	878443.312994291	878443.313461333	6			0.31161516695283353	16	604.31	-0.6	-0.506		3	5	1	5	0	0				0	33
878431.962994291	878434.962994291	5.35	5.34507883398328	878443.3129459581	878437.312994291	878437.308073125	878437.312994291	878437.313434458	878443.312994291	878443.313461333	6			0.31161516695283353	16	611.49	-0.6	-0.506		3	5	1	5	0	0				0	33
878431.962994291	878435.712994291	5.35	5.34507883398328	878443.3129459581	878437.312994291	878437.308073125	878437.312994291	878437.313434458	878443.312994291	878443.313461333	6			0.31161516695283353	16	618.57	-0.6	-0.506		3	5	1	5	1	0				0	33
878431.962994291	878436.462994291	5.35	5.34507883398328	878443.3129459581	878437.312994291	878437.308073125	878437.312994291	878437.313434458	878443.312994291	878443.313461333	6			0.31161516695283353	16	591.46	-0.6	-0.506		3	5	1	5	0	0				0	33
878431.962994291	878437.212994291	5.35	5.34507883398328	878443.3129459581	878437.312994291	878437.308073125	878437.312994291	878437.313434458	878443.312994291	878443.313461333	6			0.31161516695283353	16	599.96	-0.6	-0.506		3	5	1	5	0	0				0	33
878447.31761675	878447.31761675	5.35	5.344646707992069	878458.6675694161	878452.66761675	878452.662263458	878452.66761675	878452.676085667	878458.66761675	878458.674938667	6	3.1759012499824166	0.9259012499824166	0.3090996249811724	16	620.22	-0.6	-0.506	y	1	5	0	3	0	1	l	1	1.403996167005971	0	34
878447.31761675	878448.06761675	5.35	5.344646707992069	878458.6675694161	878452.66761675	878452.662263458	878452.66761675	878452.676085667	878458.66761675	878458.674938667	6	3.1759012499824166	0.9259012499824166	0.3090996249811724	16	597.17	-0.6	-0.506	y	1	5	0	3	0	1	l	1	1.403996167005971	0	34
878447.31761675	878448.81761675	5.35	5.344646707992069	878458.6675694161	878452.66761675	878452.662263458	878452.66761675	878452.676085667	878458.66761675	878458.674938667	6	3.1759012499824166	0.9259012499824166	0.3090996249811724	16	584.83	-0.6	-0.506	y	1	5	0	3	0	1	l	1	1.403996167005971	0	34
878447.31761675	878449.56761675	5.35	5.344646707992069	878458.6675694161	878452.66761675	878452.662263458	878452.66761675	878452.676085667	878458.66761675	878458.674938667	6	3.1759012499824166	0.9259012499824166	0.3090996249811724	16	653.57	-0.6	-0.506	y	1	5	0	3	1	1	l	1	1.403996167005971	0	34
878447.31761675	878450.31761675	5.35	5.344646707992069	878458.6675694161	878452.66761675	878452.662263458	878452.66761675	878452.676085667	878458.66761675	878458.674938667	6	3.1759012499824166	0.9259012499824166	0.3090996249811724	16	594.12	-0.6	-0.506	y	1	5	0	3	0	1	l	1	1.403996167005971	0	34
878447.31761675	878451.06761675	5.35	5.344646707992069	878458.6675694161	878452.66761675	878452.662263458	878452.66761675	878452.676085667	878458.66761675	878458.674938667	6	3.1759012499824166	0.9259012499824166	0.3090996249811724	16	577.11	-0.6	-0.506	y	1	5	0	3	0	1	l	1	1.403996167005971	0	34
878447.31761675	878451.81761675	5.35	5.344646707992069	878458.6675694161	878452.66761675	878452.662263458	878452.66761675	878452.676085667	878458.66761675	878458.674938667	6	3.1759012499824166	0.9259012499824166	0.3090996249811724	16	614.63	-0.6	-0.506	y	1	5	0	3	0	1	l	1	1.403996167005971	0	34
878447.31761675	878452.56761675	5.35	5.344646707992069	878458.6675694161	878452.66761675	878452.662263458	878452.66761675	878452.676085667	878458.66761675	878458.674938667	6	3.1759012499824166	0.9259012499824166	0.3090996249811724	16	622.17	-0.6	-0.506	y	1	5	0	3	0	1	l	1	1.403996167005971	0	34
878458.6800693751	878458.6800693751	5.35	5.34615395788569	878470.0300209161	878464.0300693751	878464.026223333	878464.0300693751	878464.030737542	878470.0300693751	878470.04285375	6	2.5635087919654325	1.0635087919654325	0.24986195797100663	16	615.03	-0.6	-0.506	v	1	5	0	2	0	0				0	35
878458.6800693751	878459.4300693751	5.35	5.34615395788569	878470.0300209161	878464.0300693751	878464.026223333	878464.0300693751	878464.030737542	878470.0300693751	878470.04285375	6	2.5635087919654325	1.0635087919654325	0.24986195797100663	16	616.33	-0.6	-0.506	v	1	5	0	2	0	0				0	35
878458.6800693751	878460.1800693751	5.35	5.34615395788569	878470.0300209161	878464.0300693751	878464.026223333	878464.0300693751	878464.030737542	878470.0300693751	878470.04285375	6	2.5635087919654325	1.0635087919654325	0.24986195797100663	16	665.68	-0.6	-0.506	v	1	5	0	2	1	0				0	35
878458.6800693751	878460.9300693751	5.35	5.34615395788569	878470.0300209161	878464.0300693751	878464.026223333	878464.0300693751	878464.030737542	878470.0300693751	878470.04285375	6	2.5635087919654325	1.0635087919654325	0.24986195797100663	16	640.82	-0.6	-0.506	v	1	5	0	2	0	0				0	35
878458.6800693751	878461.6800693751	5.35	5.34615395788569	878470.0300209161	878464.0300693751	878464.026223333	878464.0300693751	878464.030737542	878470.0300693751	878470.04285375	6	2.5635087919654325	1.0635087919654325	0.24986195797100663	16	609.31	-0.6	-0.506	v	1	5	0	2	0	0				0	35
878458.6800693751	878462.4300693751	5.35	5.34615395788569	878470.0300209161	878464.0300693751	878464.026223333	878464.0300693751	878464.030737542	878470.0300693751	878470.04285375	6	2.5635087919654325	1.0635087919654325	0.24986195797100663	16	609.56	-0.6	-0.506	v	1	5	0	2	0	0				0	35
878458.6800693751	878463.1800693751	5.35	5.34615395788569	878470.0300209161	878464.0300693751	878464.026223333	878464.0300693751	878464.030737542	878470.0300693751	878470.04285375	6	2.5635087919654325	1.0635087919654325	0.24986195797100663	16	616.28	-0.6	-0.506	v	1	5	0	2	0	0				0	35
878458.6800693751	878463.9300693751	5.35	5.34615395788569	878470.0300209161	878464.0300693751	878464.026223333	878464.0300693751	878464.030737542	878470.0300693751	878470.04285375	6	2.5635087919654325	1.0635087919654325	0.24986195797100663	16	625.48	-0.6	-0.506	v	1	5	0	2	0	0				0	35
878470.049083333	878470.049083333	5.35	5.348416959051974	878481.3990339581	878475.399083333	878475.397500292	878475.399083333	878475.40872475	878481.399083333	878481.408130875	6			0.3141455000732094	16	615.42	-0.6	-0.506		3	5	0	4	0	0				0	36
878470.049083333	878470.799083333	5.35	5.348416959051974	878481.3990339581	878475.399083333	878475.397500292	878475.399083333	878475.40872475	878481.399083333	878481.408130875	6			0.3141455000732094	16	598.33	-0.6	-0.506		3	5	0	4	0	0				0	36
878470.049083333	878471.549083333	5.35	5.348416959051974	878481.3990339581	878475.399083333	878475.397500292	878475.399083333	878475.40872475	878481.399083333	878481.408130875	6			0.3141455000732094	16	593.71	-0.6	-0.506		3	5	0	4	0	0				0	36
878470.049083333	878472.299083333	5.35	5.348416959051974	878481.3990339581	878475.399083333	878475.397500292	878475.399083333	878475.40872475	878481.399083333	878481.408130875	6			0.3141455000732094	16	612.65	-0.6	-0.506		3	5	0	4	0	0				0	36
878470.049083333	878473.049083333	5.35	5.348416959051974	878481.3990339581	878475.399083333	878475.397500292	878475.399083333	878475.40872475	878481.399083333	878481.408130875	6			0.3141455000732094	16	617.13	-0.6	-0.506		3	5	0	4	1	0				0	36
878470.049083333	878473.799083333	5.35	5.348416959051974	878481.3990339581	878475.399083333	878475.397500292	878475.399083333	878475.40872475	878481.399083333	878481.408130875	6			0.3141455000732094	16	598.68	-0.6	-0.506		3	5	0	4	0	0				0	36
878470.049083333	878474.549083333	5.35	5.348416959051974	878481.3990339581	878475.399083333	878475.397500292	878475.399083333	878475.40872475	878481.399083333	878481.408130875	6			0.3141455000732094	16	594.44	-0.6	-0.506		3	5	0	4	0	0				0	36
878470.049083333	878475.299083333	5.35	5.348416959051974	878481.3990339581	878475.399083333	878475.397500292	878475.399083333	878475.40872475	878481.399083333	878481.408130875	6			0.3141455000732094	16	564.84	-0.6	-0.506		3	5	0	4	0	0				0	36
878485.4121411251	878485.4121411251	5.35	5.346397041925229	878496.7620915411	878490.762141125	878490.758538167	878490.762141125	878490.762456042	878496.762141125	878496.76398125	6	3.264776249881834	1.0147762498818338	0.2394665830070153	16	558.1	-0.6	-0.506	y	1	5	0	3	0	1	v	1	0.9618160000536591	0	37
878485.4121411251	878486.1621411251	5.35	5.346397041925229	878496.7620915411	878490.762141125	878490.758538167	878490.762141125	878490.762456042	878496.762141125	878496.76398125	6	3.264776249881834	1.0147762498818338	0.2394665830070153	16	575.86	-0.6	-0.506	y	1	5	0	3	0	1	v	1	0.9618160000536591	0	37
878485.4121411251	878486.9121411251	5.35	5.346397041925229	878496.7620915411	878490.762141125	878490.758538167	878490.762141125	878490.762456042	878496.762141125	878496.76398125	6	3.264776249881834	1.0147762498818338	0.2394665830070153	16	587.02	-0.6	-0.506	y	1	5	0	3	0	1	v	1	0.9618160000536591	0	37
878485.4121411251	878487.6621411251	5.35	5.346397041925229	878496.7620915411	878490.762141125	878490.758538167	878490.762141125	878490.762456042	878496.762141125	878496.76398125	6	3.264776249881834	1.0147762498818338	0.2394665830070153	16	640.69	-0.6	-0.506	y	1	5	0	3	1	1	v	1	0.9618160000536591	0	37
878485.4121411251	878488.4121411251	5.35	5.346397041925229	878496.7620915411	878490.762141125	878490.758538167	878490.762141125	878490.762456042	878496.762141125	878496.76398125	6	3.264776249881834	1.0147762498818338	0.2394665830070153	16	564.01	-0.6	-0.506	y	1	5	0	3	0	1	v	1	0.9618160000536591	0	37
878485.4121411251	878489.1621411251	5.35	5.346397041925229	878496.7620915411	878490.762141125	878490.758538167	878490.762141125	878490.762456042	878496.762141125	878496.76398125	6	3.264776249881834	1.0147762498818338	0.2394665830070153	16	575.44	-0.6	-0.506	y	1	5	0	3	0	1	v	1	0.9618160000536591	0	37
878485.4121411251	878489.9121411251	5.35	5.346397041925229	878496.7620915411	878490.762141125	878490.758538167	878490.762141125	878490.762456042	878496.762141125	878496.76398125	6	3.264776249881834	1.0147762498818338	0.2394665830070153	16	567.82	-0.6	-0.506	y	1	5	0	3	0	1	v	1	0.9618160000536591	0	37
878485.4121411251	878490.6621411251	5.35	5.346397041925229	878496.7620915411	878490.762141125	878490.758538167	878490.762141125	878490.762456042	878496.762141125	878496.76398125	6	3.264776249881834	1.0147762498818338	0.2394665830070153	16	576.01	-0.6	-0.506	y	1	5	0	3	0	1	v	1	0.9618160000536591	0	37
878496.7702165	878496.7702165	5.35	5.34372629201971	878508.12016625	878502.1202165	878502.113942792	878502.1202165	878502.125667917	878508.1202165	878508.126089375	6	6.3604539999505505	4.1104539999505505	0.5776598330121487	16	575.41	-0.6	-0.506	y	3	5	0	3	0	0				0	38
878496.7702165	878497.5202165	5.35	5.34372629201971	878508.12016625	878502.1202165	878502.113942792	878502.1202165	878502.125667917	878508.1202165	878508.126089375	6	6.3604539999505505	4.1104539999505505	0.5776598330121487	16	601.25	-0.6	-0.506	y	3	5	0	3	0	0				0	38
878496.7702165	878498.2702165	5.35	5.34372629201971	878508.12016625	878502.1202165	878502.113942792	878502.1202165	878502.125667917	878508.1202165	878508.126089375	6	6.3604539999505505	4.1104539999505505	0.5776598330121487	16	584.08	-0.6	-0.506	y	3	5	0	3	0	0				0	38
878496.7702165	878499.0202165	5.35	5.34372629201971	878508.12016625	878502.1202165	878502.113942792	878502.1202165	878502.125667917	878508.1202165	878508.126089375	6	6.3604539999505505	4.1104539999505505	0.5776598330121487	16	630.28	-0.6	-0.506	y	3	5	0	3	1	0				0	38
878496.7702165	878499.7702165	5.35	5.34372629201971	878508.12016625	878502.1202165	878502.113942792	878502.1202165	878502.125667917	878508.1202165	878508.126089375	6	6.3604539999505505	4.1104539999505505	0.5776598330121487	16	569.05	-0.6	-0.506	y	3	5	0	3	0	0				0	38
878496.7702165	878500.5202165	5.35	5.34372629201971	878508.12016625	878502.1202165	878502.113942792	878502.1202165	878502.125667917	878508.1202165	878508.126089375	6	6.3604539999505505	4.1104539999505505	0.5776598330121487	16	558.35	-0.6	-0.506	y	3	5	0	3	0	0				0	38
878496.7702165	878501.2702165	5.35	5.34372629201971	878508.12016625	878502.1202165	878502.113942792	878502.1202165	878502.125667917	878508.1202165	878508.126089375	6	6.3604539999505505	4.1104539999505505	0.5776598330121487	16	560.23	-0.6	-0.506	y	3	5	0	3	0	0				0	38
878496.7702165	878502.0202165	5.35	5.34372629201971	878508.12016625	878502.1202165	878502.113942792	878502.1202165	878502.125667917	878508.1202165	878508.126089375	6	6.3604539999505505	4.1104539999505505	0.5776598330121487	16	572.9	-0.6	-0.506	y	3	5	0	3	0	0				0	38
878508.132353708	878508.132353708	5.35	5.347494833986275	878519.482303041	878513.482353708	878513.479848542	878513.482353708	878513.491475375	878519.482353708	878519.492278375	6	3.759706833981909	0.7597068339819089	0.3014406249858439	16	560.85	-0.6	-0.506	u	1	5	0	4	0	0				0	39
878508.132353708	878508.882353708	5.35	5.347494833986275	878519.482303041	878513.482353708	878513.479848542	878513.482353708	878513.491475375	878519.482353708	878519.492278375	6	3.759706833981909	0.7597068339819089	0.3014406249858439	16	567.1	-0.6	-0.506	u	1	5	0	4	0	0				0	39
878508.132353708	878509.632353708	5.35	5.347494833986275	878519.482303041	878513.482353708	878513.479848542	878513.482353708	878513.491475375	878519.482353708	878519.492278375	6	3.759706833981909	0.7597068339819089	0.3014406249858439	16	574.62	-0.6	-0.506	u	1	5	0	4	0	0				0	39
878508.132353708	878510.382353708	5.35	5.347494833986275	878519.482303041	878513.482353708	878513.479848542	878513.482353708	878513.491475375	878519.482353708	878519.492278375	6	3.759706833981909	0.7597068339819089	0.3014406249858439	16	595.27	-0.6	-0.506	u	1	5	0	4	0	0				0	39
878508.132353708	878511.132353708	5.35	5.347494833986275	878519.482303041	878513.482353708	878513.479848542	878513.482353708	878513.491475375	878519.482353708	878519.492278375	6	3.759706833981909	0.7597068339819089	0.3014406249858439	16	633.01	-0.6	-0.506	u	1	5	0	4	1	0				0	39
878508.132353708	878511.882353708	5.35	5.347494833986275	878519.482303041	878513.482353708	878513.479848542	878513.482353708	878513.491475375	878519.482353708	878519.492278375	6	3.759706833981909	0.7597068339819089	0.3014406249858439	16	568.21	-0.6	-0.506	u	1	5	0	4	0	0				0	39
878508.132353708	878512.632353708	5.35	5.347494833986275	878519.482303041	878513.482353708	878513.479848542	878513.482353708	878513.491475375	878519.482353708	878519.492278375	6	3.759706833981909	0.7597068339819089	0.3014406249858439	16	626.53	-0.6	-0.506	u	1	5	0	4	0	0				0	39
878508.132353708	878513.382353708	5.35	5.347494833986275	878519.482303041	878513.482353708	878513.479848542	878513.482353708	878513.491475375	878519.482353708	878519.492278375	6	3.759706833981909	0.7597068339819089	0.3014406249858439	16	625.91	-0.6	-0.506	u	1	5	0	4	0	0				0	39
878519.497928	878519.497928	5.35	5.349295957945287	878530.847877791	878524.847928	878524.847223958	878524.847928	878524.858528708	878530.847928	878530.858312417	6				16	628.08	-0.6	-0.506		3		0	2	0	0				0	40
878519.497928	878520.247928	5.35	5.349295957945287	878530.847877791	878524.847928	878524.847223958	878524.847928	878524.858528708	878530.847928	878530.858312417	6				16	643.21	-0.6	-0.506		3		0	2	0	0				0	40
878519.497928	878520.997928	5.35	5.349295957945287	878530.847877791	878524.847928	878524.847223958	878524.847928	878524.858528708	878530.847928	878530.858312417	6				16	649.25	-0.6	-0.506		3		0	2	1	0				0	40
878519.497928	878521.747928	5.35	5.349295957945287	878530.847877791	878524.847928	878524.847223958	878524.847928	878524.858528708	878530.847928	878530.858312417	6				16	628.23	-0.6	-0.506		3		0	2	0	0				0	40
878519.497928	878522.497928	5.35	5.349295957945287	878530.847877791	878524.847928	878524.847223958	878524.847928	878524.858528708	878530.847928	878530.858312417	6				16	616.73	-0.6	-0.506		3		0	2	0	0				0	40
878519.497928	878523.247928	5.35	5.349295957945287	878530.847877791	878524.847928	878524.847223958	878524.847928	878524.858528708	878530.847928	878530.858312417	6				16	631.04	-0.6	-0.506		3		0	2	0	0				0	40
878519.497928	878523.997928	5.35	5.349295957945287	878530.847877791	878524.847928	878524.847223958	878524.847928	878524.858528708	878530.847928	878530.858312417	6				16	588.16	-0.6	-0.506		3		0	2	0	0				0	40
878519.497928	878524.747928	5.35	5.349295957945287	878530.847877791	878524.847928	878524.847223958	878524.847928	878524.858528708	878530.847928	878530.858312417	6				16	605.83	-0.6	-0.506		3		0	2	0	0				0	40
878530.8638152081	878530.8638152081	5.35	5.345583416870795	878542.2137649581	878536.2138152081	878536.209398625	878536.2138152081	878536.213923375	878542.2138152081	878542.225569167	6	3.1948310838779435	0.9448310838779435	0.31120816606562585	16	616.92	-0.6	-0.506	y	1	5	0	3	0	0				0	41
878530.8638152081	878531.6138152081	5.35	5.345583416870795	878542.2137649581	878536.2138152081	878536.209398625	878536.2138152081	878536.213923375	878542.2138152081	878542.225569167	6	3.1948310838779435	0.9448310838779435	0.31120816606562585	16	600.35	-0.6	-0.506	y	1	5	0	3	0	0				0	41
878530.8638152081	878532.3638152081	5.35	5.345583416870795	878542.2137649581	878536.2138152081	878536.209398625	878536.2138152081	878536.213923375	878542.2138152081	878542.225569167	6	3.1948310838779435	0.9448310838779435	0.31120816606562585	16	587.21	-0.6	-0.506	y	1	5	0	3	0	0				0	41
878530.8638152081	878533.1138152081	5.35	5.345583416870795	878542.2137649581	878536.2138152081	878536.209398625	878536.2138152081	878536.213923375	878542.2138152081	878542.225569167	6	3.1948310838779435	0.9448310838779435	0.31120816606562585	16	664.02	-0.6	-0.506	y	1	5	0	3	1	0				0	41
878530.8638152081	878533.8638152081	5.35	5.345583416870795	878542.2137649581	878536.2138152081	878536.209398625	878536.2138152081	878536.213923375	878542.2138152081	878542.225569167	6	3.1948310838779435	0.9448310838779435	0.31120816606562585	16	592.52	-0.6	-0.506	y	1	5	0	3	0	0				0	41
878530.8638152081	878534.6138152081	5.35	5.345583416870795	878542.2137649581	878536.2138152081	878536.209398625	878536.2138152081	878536.213923375	878542.2138152081	878542.225569167	6	3.1948310838779435	0.9448310838779435	0.31120816606562585	16	613.2	-0.6	-0.506	y	1	5	0	3	0	0				0	41
878530.8638152081	878535.3638152081	5.35	5.345583416870795	878542.2137649581	878536.2138152081	878536.209398625	878536.2138152081	878536.213923375	878542.2138152081	878542.225569167	6	3.1948310838779435	0.9448310838779435	0.31120816606562585	16	599.22	-0.6	-0.506	y	1	5	0	3	0	0				0	41
878530.8638152081	878536.1138152081	5.35	5.345583416870795	878542.2137649581	878536.2138152081	878536.209398625	878536.2138152081	878536.213923375	878542.2138152081	878542.225569167	6	3.1948310838779435	0.9448310838779435	0.31120816606562585	16	590.9	-0.6	-0.506	y	1	5	0	3	0	0				0	41
878542.2322023751	878542.2322023751	5.35	5.345660666935146	878553.5821512081	878547.582202375	878547.577863042	878547.582202375	878547.592389708	878553.582202375	878553.592391167	6	3.161023582913913	0.9110235829139128	0.4107162500731647	16	625.33	-0.6	-0.506	y	1	5	0	3	0	0				0	42
878542.2322023751	878542.9822023751	5.35	5.345660666935146	878553.5821512081	878547.582202375	878547.577863042	878547.582202375	878547.592389708	878553.582202375	878553.592391167	6	3.161023582913913	0.9110235829139128	0.4107162500731647	16	608.64	-0.6	-0.506	y	1	5	0	3	0	0				0	42
878542.2322023751	878543.7322023751	5.35	5.345660666935146	878553.5821512081	878547.582202375	878547.577863042	878547.582202375	878547.592389708	878553.582202375	878553.592391167	6	3.161023582913913	0.9110235829139128	0.4107162500731647	16	580.14	-0.6	-0.506	y	1	5	0	3	0	0				0	42
878542.2322023751	878544.4822023751	5.35	5.345660666935146	878553.5821512081	878547.582202375	878547.577863042	878547.582202375	878547.592389708	878553.582202375	878553.592391167	6	3.161023582913913	0.9110235829139128	0.4107162500731647	16	687.63	-0.6	-0.506	y	1	5	0	3	1	0				0	42
878542.2322023751	878545.2322023751	5.35	5.345660666935146	878553.5821512081	878547.582202375	878547.577863042	878547.582202375	878547.592389708	878553.582202375	878553.592391167	6	3.161023582913913	0.9110235829139128	0.4107162500731647	16	560.73	-0.6	-0.506	y	1	5	0	3	0	0				0	42
878542.2322023751	878545.9822023751	5.35	5.345660666935146	878553.5821512081	878547.582202375	878547.577863042	878547.582202375	878547.592389708	878553.582202375	878553.592391167	6	3.161023582913913	0.9110235829139128	0.4107162500731647	16	557.67	-0.6	-0.506	y	1	5	0	3	0	0				0	42
878542.2322023751	878546.7322023751	5.35	5.345660666935146	878553.5821512081	878547.582202375	878547.577863042	878547.582202375	878547.592389708	878553.582202375	878553.592391167	6	3.161023582913913	0.9110235829139128	0.4107162500731647	16	577.78	-0.6	-0.506	y	1	5	0	3	0	0				0	42
878542.2322023751	878547.4822023751	5.35	5.345660666935146	878553.5821512081	878547.582202375	878547.577863042	878547.582202375	878547.592389708	878553.582202375	878553.592391167	6	3.161023582913913	0.9110235829139128	0.4107162500731647	16	581.4	-0.6	-0.506	y	1	5	0	3	0	0				0	42
878553.598088625	878553.598088625	5.35	5.348761041997932	878564.9480385411	878558.948088625	878558.946849667	878558.948088625	878558.959489375	878564.948088625	878564.958760583	6	2.5936209169449285	1.0936209169449285	0.2948811249807477	16	590.36	-0.6	-0.506	v	1	5	0	2	0	0				0	43
878553.598088625	878554.348088625	5.35	5.348761041997932	878564.9480385411	878558.948088625	878558.946849667	878558.948088625	878558.959489375	878564.948088625	878564.958760583	6	2.5936209169449285	1.0936209169449285	0.2948811249807477	16	564.48	-0.6	-0.506	v	1	5	0	2	0	0				0	43
878553.598088625	878555.098088625	5.35	5.348761041997932	878564.9480385411	878558.948088625	878558.946849667	878558.948088625	878558.959489375	878564.948088625	878564.958760583	6	2.5936209169449285	1.0936209169449285	0.2948811249807477	16	740.36	-0.6	-0.506	v	1	5	0	2	1	0				0	43
878553.598088625	878555.848088625	5.35	5.348761041997932	878564.9480385411	878558.948088625	878558.946849667	878558.948088625	878558.959489375	878564.948088625	878564.958760583	6	2.5936209169449285	1.0936209169449285	0.2948811249807477	16	587.2	-0.6	-0.506	v	1	5	0	2	0	0				0	43
878553.598088625	878556.598088625	5.35	5.348761041997932	878564.9480385411	878558.948088625	878558.946849667	878558.948088625	878558.959489375	878564.948088625	878564.958760583	6	2.5936209169449285	1.0936209169449285	0.2948811249807477	16	583.69	-0.6	-0.506	v	1	5	0	2	0	0				0	43
878553.598088625	878557.348088625	5.35	5.348761041997932	878564.9480385411	878558.948088625	878558.946849667	878558.948088625	878558.959489375	878564.948088625	878564.958760583	6	2.5936209169449285	1.0936209169449285	0.2948811249807477	16	606.82	-0.6	-0.506	v	1	5	0	2	0	0				0	43
878553.598088625	878558.098088625	5.35	5.348761041997932	878564.9480385411	878558.948088625	878558.946849667	878558.948088625	878558.959489375	878564.948088625	878564.958760583	6	2.5936209169449285	1.0936209169449285	0.2948811249807477	16	579.86	-0.6	-0.506	v	1	5	0	2	0	0				0	43
878553.598088625	878558.848088625	5.35	5.348761041997932	878564.9480385411	878558.948088625	878558.946849667	878558.948088625	878558.959489375	878564.948088625	878564.958760583	6	2.5936209169449285	1.0936209169449285	0.2948811249807477	16	578.61	-0.6	-0.506	v	1	5	0	2	0	0				0	43
878564.964288458	878564.964288458	5.35	5.349160874960944	878576.31423825	878570.314288458	878570.313449333	878570.314288458	878570.325678	878576.314288458	878576.324829625	6	2.3289014589972794	0.8289014589972794	0.24365437508095056	16	584.54	-0.6	-0.506	v	1	5	0	2	0	0				0	44
878564.964288458	878565.714288458	5.35	5.349160874960944	878576.31423825	878570.314288458	878570.313449333	878570.314288458	878570.325678	878576.314288458	878576.324829625	6	2.3289014589972794	0.8289014589972794	0.24365437508095056	16	566.02	-0.6	-0.506	v	1	5	0	2	0	0				0	44
878564.964288458	878566.464288458	5.35	5.349160874960944	878576.31423825	878570.314288458	878570.313449333	878570.314288458	878570.325678	878576.314288458	878576.324829625	6	2.3289014589972794	0.8289014589972794	0.24365437508095056	16	711.56	-0.6	-0.506	v	1	5	0	2	1	0				0	44
878564.964288458	878567.214288458	5.35	5.349160874960944	878576.31423825	878570.314288458	878570.313449333	878570.314288458	878570.325678	878576.314288458	878576.324829625	6	2.3289014589972794	0.8289014589972794	0.24365437508095056	16	595.67	-0.6	-0.506	v	1	5	0	2	0	0				0	44
878564.964288458	878567.964288458	5.35	5.349160874960944	878576.31423825	878570.314288458	878570.313449333	878570.314288458	878570.325678	878576.314288458	878576.324829625	6	2.3289014589972794	0.8289014589972794	0.24365437508095056	16	586.82	-0.6	-0.506	v	1	5	0	2	0	0				0	44
878564.964288458	878568.714288458	5.35	5.349160874960944	878576.31423825	878570.314288458	878570.313449333	878570.314288458	878570.325678	878576.314288458	878576.324829625	6	2.3289014589972794	0.8289014589972794	0.24365437508095056	16	601.24	-0.6	-0.506	v	1	5	0	2	0	0				0	44
878564.964288458	878569.464288458	5.35	5.349160874960944	878576.31423825	878570.314288458	878570.313449333	878570.314288458	878570.325678	878576.314288458	878576.324829625	6	2.3289014589972794	0.8289014589972794	0.24365437508095056	16	583.23	-0.6	-0.506	v	1	5	0	2	0	0				0	44
878564.964288458	878570.214288458	5.35	5.349160874960944	878576.31423825	878570.314288458	878570.313449333	878570.314288458	878570.325678	878576.314288458	878576.324829625	6	2.3289014589972794	0.8289014589972794	0.24365437508095056	16	578.99	-0.6	-0.506	v	1	5	0	2	0	0				0	44
878576.3304881661	878576.3304881661	5.35	5.345275666913949	878587.6804368331	878581.680488166	878581.675763833	878581.680488166	878581.680997917	878587.680488166	878587.692231333	6	3.0292982088867575	1.5292982088867575	0.8102590830530971	16	572.22	-0.6	-0.506	v	1	5	0	2	0	0				0	45
878576.3304881661	878577.0804881661	5.35	5.345275666913949	878587.6804368331	878581.680488166	878581.675763833	878581.680488166	878581.680997917	878587.680488166	878587.692231333	6	3.0292982088867575	1.5292982088867575	0.8102590830530971	16	604.95	-0.6	-0.506	v	1	5	0	2	0	0				0	45
878576.3304881661	878577.8304881661	5.35	5.345275666913949	878587.6804368331	878581.680488166	878581.675763833	878581.680488166	878581.680997917	878587.680488166	878587.692231333	6	3.0292982088867575	1.5292982088867575	0.8102590830530971	16	673.84	-0.6	-0.506	v	1	5	0	2	1	0				0	45
