onset	onset_tone	duration	duration_getsecs	offset_trial	offset_sound	offset_sound_getsecs	onset_iti	onset_iti_getsecs	offset_iti	offset_iti_getsecs	ITI	rt_getsecs_trial	rt_getsecs_dev	rt_slider_getsecs	tau_std	frequency	lim_std	lim_dev	key_pressed	correct	confidence	rule	dpos	trial_type	is_catch_n_minus_one	catch_key	catch_correct	catch_rt	runs	trial_no
491257.83907466603	491257.83907466603	5.35	5.342578000971116	491269.189028125	491263.189074666	491263.181652667	491263.189074666	491263.194136875	491269.189074666	491269.193699042	6			0.6955742909922265	240	993.82	0.3	0.501		3	5	0	4	0	0				1	60
491257.83907466603	491258.58907466603	5.35	5.342578000971116	491269.189028125	491263.189074666	491263.181652667	491263.189074666	491263.194136875	491269.189074666	491269.193699042	6			0.6955742909922265	240	991.2	0.3	0.501		3	5	0	4	0	0				1	60
491257.83907466603	491259.33907466603	5.35	5.342578000971116	491269.189028125	491263.189074666	491263.181652667	491263.189074666	491263.194136875	491269.189074666	491269.193699042	6			0.6955742909922265	240	989.21	0.3	0.501		3	5	0	4	0	0				1	60
491257.83907466603	491260.08907466603	5.35	5.342578000971116	491269.189028125	491263.189074666	491263.181652667	491263.189074666	491263.194136875	491269.189074666	491269.193699042	6			0.6955742909922265	240	1002.82	0.3	0.501		3	5	0	4	0	0				1	60
491257.83907466603	491260.83907466603	5.35	5.342578000971116	491269.189028125	491263.189074666	491263.181652667	491263.189074666	491263.194136875	491269.189074666	491269.193699042	6			0.6955742909922265	240	1048.02	0.3	0.501		3	5	0	4	1	0				1	60
491257.83907466603	491261.58907466603	5.35	5.342578000971116	491269.189028125	491263.189074666	491263.181652667	491263.189074666	491263.194136875	491269.189074666	491269.193699042	6			0.6955742909922265	240	995.68	0.3	0.501		3	5	0	4	0	0				1	60
491257.83907466603	491262.33907466603	5.35	5.342578000971116	491269.189028125	491263.189074666	491263.181652667	491263.189074666	491263.194136875	491269.189074666	491269.193699042	6			0.6955742909922265	240	982.06	0.3	0.501		3	5	0	4	0	0				1	60
491257.83907466603	491263.08907466603	5.35	5.342578000971116	491269.189028125	491263.189074666	491263.181652667	491263.189074666	491263.194136875	491269.189074666	491269.193699042	6			0.6955742909922265	240	979.44	0.3	0.501		3	5	0	4	0	0				1	60
491269.199340583	491269.199340583	5.35	5.349201834003907	491280.549292333	491274.549340583	491274.548542417	491274.549340583	491274.560285417	491280.549340583	491280.560140459	6	4.028454501007218	1.778454501007218	0.3776864579995163	240	992.18	0.3	0.501	y	1	5	0	3	0	0				1	61
491269.199340583	491269.949340583	5.35	5.349201834003907	491280.549292333	491274.549340583	491274.548542417	491274.549340583	491274.560285417	491280.549340583	491280.560140459	6	4.028454501007218	1.778454501007218	0.3776864579995163	240	972.48	0.3	0.501	y	1	5	0	3	0	0				1	61
491269.199340583	491270.699340583	5.35	5.349201834003907	491280.549292333	491274.549340583	491274.548542417	491274.549340583	491274.560285417	491280.549340583	491280.560140459	6	4.028454501007218	1.778454501007218	0.3776864579995163	240	978.52	0.3	0.501	y	1	5	0	3	0	0				1	61
491269.199340583	491271.449340583	5.35	5.349201834003907	491280.549292333	491274.549340583	491274.548542417	491274.549340583	491274.560285417	491280.549340583	491280.560140459	6	4.028454501007218	1.778454501007218	0.3776864579995163	240	1018.04	0.3	0.501	y	1	5	0	3	1	0				1	61
491269.199340583	491272.199340583	5.35	5.349201834003907	491280.549292333	491274.549340583	491274.548542417	491274.549340583	491274.560285417	491280.549340583	491280.560140459	6	4.028454501007218	1.778454501007218	0.3776864579995163	240	985.99	0.3	0.501	y	1	5	0	3	0	0				1	61
491269.199340583	491272.949340583	5.35	5.349201834003907	491280.549292333	491274.549340583	491274.548542417	491274.549340583	491274.560285417	491280.549340583	491280.560140459	6	4.028454501007218	1.778454501007218	0.3776864579995163	240	977.64	0.3	0.501	y	1	5	0	3	0	0				1	61
491269.199340583	491273.699340583	5.35	5.349201834003907	491280.549292333	491274.549340583	491274.548542417	491274.549340583	491274.560285417	491280.549340583	491280.560140459	6	4.028454501007218	1.778454501007218	0.3776864579995163	240	984.32	0.3	0.501	y	1	5	0	3	0	0				1	61
491269.199340583	491274.449340583	5.35	5.349201834003907	491280.549292333	491274.549340583	491274.548542417	491274.549340583	491274.560285417	491280.549340583	491280.560140459	6	4.028454501007218	1.778454501007218	0.3776864579995163	240	994.21	0.3	0.501	y	1	5	0	3	0	0				1	61
491280.565854791	491280.565854791	5.35	5.349076083977707	491291.915807375	491285.915854791	491285.914930875	491285.915854791	491285.927068834	491291.915854791	491291.926880584	6	2.6285270839580335	1.1285270839580335	0.31122254201909527	240	988.2	0.3	0.501	y	0	1	0	2	0	0				1	62
491280.565854791	491281.315854791	5.35	5.349076083977707	491291.915807375	491285.915854791	491285.914930875	491285.915854791	491285.927068834	491291.915854791	491291.926880584	6	2.6285270839580335	1.1285270839580335	0.31122254201909527	240	988.15	0.3	0.501	y	0	1	0	2	0	0				1	62
491280.565854791	491282.065854791	5.35	5.349076083977707	491291.915807375	491285.915854791	491285.914930875	491285.915854791	491285.927068834	491291.915854791	491291.926880584	6	2.6285270839580335	1.1285270839580335	0.31122254201909527	240	1013.8	0.3	0.501	y	0	1	0	2	1	0				1	62
491280.565854791	491282.815854791	5.35	5.349076083977707	491291.915807375	491285.915854791	491285.914930875	491285.915854791	491285.927068834	491291.915854791	491291.926880584	6	2.6285270839580335	1.1285270839580335	0.31122254201909527	240	977.57	0.3	0.501	y	0	1	0	2	0	0				1	62
491280.565854791	491283.565854791	5.35	5.349076083977707	491291.915807375	491285.915854791	491285.914930875	491285.915854791	491285.927068834	491291.915854791	491291.926880584	6	2.6285270839580335	1.1285270839580335	0.31122254201909527	240	980.74	0.3	0.501	y	0	1	0	2	0	0				1	62
491280.565854791	491284.315854791	5.35	5.349076083977707	491291.915807375	491285.915854791	491285.914930875	491285.915854791	491285.927068834	491291.915854791	491291.926880584	6	2.6285270839580335	1.1285270839580335	0.31122254201909527	240	984.3	0.3	0.501	y	0	1	0	2	0	0				1	62
491280.565854791	491285.065854791	5.35	5.349076083977707	491291.915807375	491285.915854791	491285.914930875	491285.915854791	491285.927068834	491291.915854791	491291.926880584	6	2.6285270839580335	1.1285270839580335	0.31122254201909527	240	991.38	0.3	0.501	y	0	1	0	2	0	0				1	62
491280.565854791	491285.815854791	5.35	5.349076083977707	491291.915807375	491285.915854791	491285.914930875	491285.915854791	491285.927068834	491291.915854791	491291.926880584	6	2.6285270839580335	1.1285270839580335	0.31122254201909527	240	978.41	0.3	0.501	y	0	1	0	2	0	0				1	62
491291.93236979103	491291.93236979103	5.35	5.349123042949941	491303.282321708	491297.282369791	491297.281492834	491297.282369791	491297.2935875	491303.282369791	491303.293608209	6	3.4953793339664117	1.2453793339664117	0.3616234169458039	240	979.93	0.3	0.501	y	1	5	0	3	0	0				1	63
491291.93236979103	491292.68236979103	5.35	5.349123042949941	491303.282321708	491297.282369791	491297.281492834	491297.282369791	491297.2935875	491303.282369791	491303.293608209	6	3.4953793339664117	1.2453793339664117	0.3616234169458039	240	988.55	0.3	0.501	y	1	5	0	3	0	0				1	63
491291.93236979103	491293.43236979103	5.35	5.349123042949941	491303.282321708	491297.282369791	491297.281492834	491297.282369791	491297.2935875	491303.282369791	491303.293608209	6	3.4953793339664117	1.2453793339664117	0.3616234169458039	240	997.93	0.3	0.501	y	1	5	0	3	0	0				1	63
491291.93236979103	491294.18236979103	5.35	5.349123042949941	491303.282321708	491297.282369791	491297.281492834	491297.282369791	491297.2935875	491303.282369791	491303.293608209	6	3.4953793339664117	1.2453793339664117	0.3616234169458039	240	1047.72	0.3	0.501	y	1	5	0	3	1	0				1	63
491291.93236979103	491294.93236979103	5.35	5.349123042949941	491303.282321708	491297.282369791	491297.281492834	491297.282369791	491297.2935875	491303.282369791	491303.293608209	6	3.4953793339664117	1.2453793339664117	0.3616234169458039	240	989.73	0.3	0.501	y	1	5	0	3	0	0				1	63
491291.93236979103	491295.68236979103	5.35	5.349123042949941	491303.282321708	491297.282369791	491297.281492834	491297.282369791	491297.2935875	491303.282369791	491303.293608209	6	3.4953793339664117	1.2453793339664117	0.3616234169458039	240	976.05	0.3	0.501	y	1	5	0	3	0	0				1	63
491291.93236979103	491296.43236979103	5.35	5.349123042949941	491303.282321708	491297.282369791	491297.281492834	491297.282369791	491297.2935875	491303.282369791	491303.293608209	6	3.4953793339664117	1.2453793339664117	0.3616234169458039	240	982.95	0.3	0.501	y	1	5	0	3	0	0				1	63
491291.93236979103	491297.18236979103	5.35	5.349123042949941	491303.282321708	491297.282369791	491297.281492834	491297.282369791	491297.2935875	491303.282369791	491303.293608209	6	3.4953793339664117	1.2453793339664117	0.3616234169458039	240	984.81	0.3	0.501	y	1	5	0	3	0	0				1	63
491303.299821625	491303.299821625	5.35	5.348289959016256	491314.649773625	491308.649821625	491308.648111584	491308.649821625	491308.659574709	491314.649821625	491314.661416917	6	2.4988685420248657	0.9988685420248657	0.34427025000331923	240	985.47	0.3	0.501	v	1	5	0	2	0	0				1	64
491303.299821625	491304.049821625	5.35	5.348289959016256	491314.649773625	491308.649821625	491308.648111584	491308.649821625	491308.659574709	491314.649821625	491314.661416917	6	2.4988685420248657	0.9988685420248657	0.34427025000331923	240	983.17	0.3	0.501	v	1	5	0	2	0	0				1	64
491303.299821625	491304.799821625	5.35	5.348289959016256	491314.649773625	491308.649821625	491308.648111584	491308.649821625	491308.659574709	491314.649821625	491314.661416917	6	2.4988685420248657	0.9988685420248657	0.34427025000331923	240	1056.78	0.3	0.501	v	1	5	0	2	1	0				1	64
491303.299821625	491305.549821625	5.35	5.348289959016256	491314.649773625	491308.649821625	491308.648111584	491308.649821625	491308.659574709	491314.649821625	491314.661416917	6	2.4988685420248657	0.9988685420248657	0.34427025000331923	240	968.68	0.3	0.501	v	1	5	0	2	0	0				1	64
491303.299821625	491306.299821625	5.35	5.348289959016256	491314.649773625	491308.649821625	491308.648111584	491308.649821625	491308.659574709	491314.649821625	491314.661416917	6	2.4988685420248657	0.9988685420248657	0.34427025000331923	240	972.76	0.3	0.501	v	1	5	0	2	0	0				1	64
491303.299821625	491307.049821625	5.35	5.348289959016256	491314.649773625	491308.649821625	491308.648111584	491308.649821625	491308.659574709	491314.649821625	491314.661416917	6	2.4988685420248657	0.9988685420248657	0.34427025000331923	240	967.07	0.3	0.501	v	1	5	0	2	0	0				1	64
491303.299821625	491307.799821625	5.35	5.348289959016256	491314.649773625	491308.649821625	491308.648111584	491308.649821625	491308.659574709	491314.649821625	491314.661416917	6	2.4988685420248657	0.9988685420248657	0.34427025000331923	240	963.25	0.3	0.501	v	1	5	0	2	0	0				1	64
491303.299821625	491308.549821625	5.35	5.348289959016256	491314.649773625	491308.649821625	491308.648111584	491308.649821625	491308.659574709	491314.649821625	491314.661416917	6	2.4988685420248657	0.9988685420248657	0.34427025000331923	240	966.43	0.3	0.501	v	1	5	0	2	0	0				1	64
491314.668211041	491314.668211041	5.35	5.346755584003404	491326.018165625	491320.018211041	491320.014966625	491320.018211041	491320.02690925	491326.018211041	491326.027023084	6	3.8633485839818604	0.8633485839818604	0.31101583398412913	240	965.69	0.3	0.501	u	1	5	0	4	0	0				1	65
491314.668211041	491315.418211041	5.35	5.346755584003404	491326.018165625	491320.018211041	491320.014966625	491320.018211041	491320.02690925	491326.018211041	491326.027023084	6	3.8633485839818604	0.8633485839818604	0.31101583398412913	240	971.66	0.3	0.501	u	1	5	0	4	0	0				1	65
491314.668211041	491316.168211041	5.35	5.346755584003404	491326.018165625	491320.018211041	491320.014966625	491320.018211041	491320.02690925	491326.018211041	491326.027023084	6	3.8633485839818604	0.8633485839818604	0.31101583398412913	240	962.92	0.3	0.501	u	1	5	0	4	0	0				1	65
491314.668211041	491316.918211041	5.35	5.346755584003404	491326.018165625	491320.018211041	491320.014966625	491320.018211041	491320.02690925	491326.018211041	491326.027023084	6	3.8633485839818604	0.8633485839818604	0.31101583398412913	240	972.28	0.3	0.501	u	1	5	0	4	0	0				1	65
491314.668211041	491317.668211041	5.35	5.346755584003404	491326.018165625	491320.018211041	491320.014966625	491320.018211041	491320.02690925	491326.018211041	491326.027023084	6	3.8633485839818604	0.8633485839818604	0.31101583398412913	240	1065.74	0.3	0.501	u	1	5	0	4	1	0				1	65
491314.668211041	491318.418211041	5.35	5.346755584003404	491326.018165625	491320.018211041	491320.014966625	491320.018211041	491320.02690925	491326.018211041	491326.027023084	6	3.8633485839818604	0.8633485839818604	0.31101583398412913	240	979.34	0.3	0.501	u	1	5	0	4	0	0				1	65
491314.668211041	491319.168211041	5.35	5.346755584003404	491326.018165625	491320.018211041	491320.014966625	491320.018211041	491320.02690925	491326.018211041	491326.027023084	6	3.8633485839818604	0.8633485839818604	0.31101583398412913	240	982.64	0.3	0.501	u	1	5	0	4	0	0				1	65
491314.668211041	491319.918211041	5.35	5.346755584003404	491326.018165625	491320.018211041	491320.014966625	491320.018211041	491320.02690925	491326.018211041	491326.027023084	6	3.8633485839818604	0.8633485839818604	0.31101583398412913	240	973.71	0.3	0.501	u	1	5	0	4	0	0				1	65
491326.032540583	491326.032540583	5.35	5.347596834006254	491337.382493708	491331.38254058297	491331.380137417	491331.38254058297	491331.393715875	491337.38254058297	491337.393377959	6	3.794914541998878	0.7949145419988781	0.3114753750269301	240	984.29	0.3	0.501	u	1	5	0	4	0	0				1	66
491326.032540583	491326.782540583	5.35	5.347596834006254	491337.382493708	491331.38254058297	491331.380137417	491331.38254058297	491331.393715875	491337.38254058297	491337.393377959	6	3.794914541998878	0.7949145419988781	0.3114753750269301	240	972.24	0.3	0.501	u	1	5	0	4	0	0				1	66
491326.032540583	491327.532540583	5.35	5.347596834006254	491337.382493708	491331.38254058297	491331.380137417	491331.38254058297	491331.393715875	491337.38254058297	491337.393377959	6	3.794914541998878	0.7949145419988781	0.3114753750269301	240	966.32	0.3	0.501	u	1	5	0	4	0	0				1	66
491326.032540583	491328.282540583	5.35	5.347596834006254	491337.382493708	491331.38254058297	491331.380137417	491331.38254058297	491331.393715875	491337.38254058297	491337.393377959	6	3.794914541998878	0.7949145419988781	0.3114753750269301	240	965.79	0.3	0.501	u	1	5	0	4	0	0				1	66
491326.032540583	491329.032540583	5.35	5.347596834006254	491337.382493708	491331.38254058297	491331.380137417	491331.38254058297	491331.393715875	491337.38254058297	491337.393377959	6	3.794914541998878	0.7949145419988781	0.3114753750269301	240	1069.29	0.3	0.501	u	1	5	0	4	1	0				1	66
491326.032540583	491329.782540583	5.35	5.347596834006254	491337.382493708	491331.38254058297	491331.380137417	491331.38254058297	491331.393715875	491337.38254058297	491337.393377959	6	3.794914541998878	0.7949145419988781	0.3114753750269301	240	956.4	0.3	0.501	u	1	5	0	4	0	0				1	66
491326.032540583	491330.532540583	5.35	5.347596834006254	491337.382493708	491331.38254058297	491331.380137417	491331.38254058297	491331.393715875	491337.38254058297	491337.393377959	6	3.794914541998878	0.7949145419988781	0.3114753750269301	240	960.14	0.3	0.501	u	1	5	0	4	0	0				1	66
491326.032540583	491331.282540583	5.35	5.347596834006254	491337.382493708	491331.38254058297	491331.380137417	491331.38254058297	491331.393715875	491337.38254058297	491337.393377959	6	3.794914541998878	0.7949145419988781	0.3114753750269301	240	948.41	0.3	0.501	u	1	5	0	4	0	0				1	66
491341.397477791	491341.397477791	5.35	5.348711376020219	491352.747431791	491346.747477791	491346.746189167	491346.747477791	491346.758721792	491352.747477791	491352.760158667	6	3.029808958992362	0.779808958992362	0.32699462497839704	240	950.52	0.3	0.501	y	1	5	0	3	0	1	v	1	0.9216843330068514	1	67
491341.397477791	491342.147477791	5.35	5.348711376020219	491352.747431791	491346.747477791	491346.746189167	491346.747477791	491346.758721792	491352.747477791	491352.760158667	6	3.029808958992362	0.779808958992362	0.32699462497839704	240	953.04	0.3	0.501	y	1	5	0	3	0	1	v	1	0.9216843330068514	1	67
491341.397477791	491342.897477791	5.35	5.348711376020219	491352.747431791	491346.747477791	491346.746189167	491346.747477791	491346.758721792	491352.747477791	491352.760158667	6	3.029808958992362	0.779808958992362	0.32699462497839704	240	956.4	0.3	0.501	y	1	5	0	3	0	1	v	1	0.9216843330068514	1	67
491341.397477791	491343.647477791	5.35	5.348711376020219	491352.747431791	491346.747477791	491346.746189167	491346.747477791	491346.758721792	491352.747477791	491352.760158667	6	3.029808958992362	0.779808958992362	0.32699462497839704	240	1065.96	0.3	0.501	y	1	5	0	3	1	1	v	1	0.9216843330068514	1	67
491341.397477791	491344.397477791	5.35	5.348711376020219	491352.747431791	491346.747477791	491346.746189167	491346.747477791	491346.758721792	491352.747477791	491352.760158667	6	3.029808958992362	0.779808958992362	0.32699462497839704	240	949.7	0.3	0.501	y	1	5	0	3	0	1	v	1	0.9216843330068514	1	67
491341.397477791	491345.147477791	5.35	5.348711376020219	491352.747431791	491346.747477791	491346.746189167	491346.747477791	491346.758721792	491352.747477791	491352.760158667	6	3.029808958992362	0.779808958992362	0.32699462497839704	240	946.48	0.3	0.501	y	1	5	0	3	0	1	v	1	0.9216843330068514	1	67
491341.397477791	491345.897477791	5.35	5.348711376020219	491352.747431791	491346.747477791	491346.746189167	491346.747477791	491346.758721792	491352.747477791	491352.760158667	6	3.029808958992362	0.779808958992362	0.32699462497839704	240	948.55	0.3	0.501	y	1	5	0	3	0	1	v	1	0.9216843330068514	1	67
491341.397477791	491346.647477791	5.35	5.348711376020219	491352.747431791	491346.747477791	491346.746189167	491346.747477791	491346.758721792	491352.747477791	491352.760158667	6	3.029808958992362	0.779808958992362	0.32699462497839704	240	951.83	0.3	0.501	y	1	5	0	3	0	1	v	1	0.9216843330068514	1	67
491352.76586920803	491352.76586920803	5.35	5.34877650096314	491364.115821333	491358.115869208	491358.114645709	491358.115869208	491358.126032542	491364.115869208	491364.126052	6	2.9975508759962395	0.7475508759962395	0.37763958296272904	240	962.89	0.3	0.501	y	1	5	0	3	0	0				1	68
491352.76586920803	491353.51586920803	5.35	5.34877650096314	491364.115821333	491358.115869208	491358.114645709	491358.115869208	491358.126032542	491364.115869208	491364.126052	6	2.9975508759962395	0.7475508759962395	0.37763958296272904	240	959.73	0.3	0.501	y	1	5	0	3	0	0				1	68
491352.76586920803	491354.26586920803	5.35	5.34877650096314	491364.115821333	491358.115869208	491358.114645709	491358.115869208	491358.126032542	491364.115869208	491364.126052	6	2.9975508759962395	0.7475508759962395	0.37763958296272904	240	967.0	0.3	0.501	y	1	5	0	3	0	0				1	68
491352.76586920803	491355.01586920803	5.35	5.34877650096314	491364.115821333	491358.115869208	491358.114645709	491358.115869208	491358.126032542	491364.115869208	491364.126052	6	2.9975508759962395	0.7475508759962395	0.37763958296272904	240	1069.89	0.3	0.501	y	1	5	0	3	1	0				1	68
491352.76586920803	491355.76586920803	5.35	5.34877650096314	491364.115821333	491358.115869208	491358.114645709	491358.115869208	491358.126032542	491364.115869208	491364.126052	6	2.9975508759962395	0.7475508759962395	0.37763958296272904	240	953.47	0.3	0.501	y	1	5	0	3	0	0				1	68
491352.76586920803	491356.51586920803	5.35	5.34877650096314	491364.115821333	491358.115869208	491358.114645709	491358.115869208	491358.126032542	491364.115869208	491364.126052	6	2.9975508759962395	0.7475508759962395	0.37763958296272904	240	961.79	0.3	0.501	y	1	5	0	3	0	0				1	68
491352.76586920803	491357.26586920803	5.35	5.34877650096314	491364.115821333	491358.115869208	491358.114645709	491358.115869208	491358.126032542	491364.115869208	491364.126052	6	2.9975508759962395	0.7475508759962395	0.37763958296272904	240	955.74	0.3	0.501	y	1	5	0	3	0	0				1	68
491352.76586920803	491358.01586920803	5.35	5.34877650096314	491364.115821333	491358.115869208	491358.114645709	491358.115869208	491358.126032542	491364.115869208	491364.126052	6	2.9975508759962395	0.7475508759962395	0.37763958296272904	240	950.08	0.3	0.501	y	1	5	0	3	0	0				1	68
491364.132071333	491364.132071333	5.35	5.347982166975271	491375.4820245	491369.482071333	491369.4800535	491369.482071333	491369.493460875	491375.482071333	491375.493479917	6	5.045069333980791	0.5450693339807913	0.4611037910217419	240	947.23	0.3	0.501	l	1	5	1	6	0	0				1	69
491364.132071333	491364.882071333	5.35	5.347982166975271	491375.4820245	491369.482071333	491369.4800535	491369.482071333	491369.493460875	491375.482071333	491375.493479917	6	5.045069333980791	0.5450693339807913	0.4611037910217419	240	952.02	0.3	0.501	l	1	5	1	6	0	0				1	69
491364.132071333	491365.632071333	5.35	5.347982166975271	491375.4820245	491369.482071333	491369.4800535	491369.482071333	491369.493460875	491375.482071333	491375.493479917	6	5.045069333980791	0.5450693339807913	0.4611037910217419	240	949.07	0.3	0.501	l	1	5	1	6	0	0				1	69
491364.132071333	491366.382071333	5.35	5.347982166975271	491375.4820245	491369.482071333	491369.4800535	491369.482071333	491369.493460875	491375.482071333	491375.493479917	6	5.045069333980791	0.5450693339807913	0.4611037910217419	240	952.03	0.3	0.501	l	1	5	1	6	0	0				1	69
491364.132071333	491367.132071333	5.35	5.347982166975271	491375.4820245	491369.482071333	491369.4800535	491369.482071333	491369.493460875	491375.482071333	491375.493479917	6	5.045069333980791	0.5450693339807913	0.4611037910217419	240	951.24	0.3	0.501	l	1	5	1	6	0	0				1	69
491364.132071333	491367.882071333	5.35	5.347982166975271	491375.4820245	491369.482071333	491369.4800535	491369.482071333	491369.493460875	491375.482071333	491375.493479917	6	5.045069333980791	0.5450693339807913	0.4611037910217419	240	937.75	0.3	0.501	l	1	5	1	6	0	0				1	69
491364.132071333	491368.632071333	5.35	5.347982166975271	491375.4820245	491369.482071333	491369.4800535	491369.482071333	491369.493460875	491375.482071333	491375.493479917	6	5.045069333980791	0.5450693339807913	0.4611037910217419	240	1065.3	0.3	0.501	l	1	5	1	6	1	0				1	69
491364.132071333	491369.382071333	5.35	5.347982166975271	491375.4820245	491369.482071333	491369.4800535	491369.482071333	491369.493460875	491375.482071333	491375.493479917	6	5.045069333980791	0.5450693339807913	0.4611037910217419	240	937.07	0.3	0.501	l	1	5	1	6	0	0				1	69
491375.499836916	491375.499836916	5.35	5.34848054300528	491386.849788666	491380.84983691596	491380.848317459	491380.84983691596	491380.8595775	491386.84983691596	491386.860012625	6	4.327339293027762	0.5773392930277623	0.2936152089969255	240	935.02	0.3	0.501	i	1	5	1	5	0	0				1	70
491375.499836916	491376.249836916	5.35	5.34848054300528	491386.849788666	491380.84983691596	491380.848317459	491380.84983691596	491380.8595775	491386.84983691596	491386.860012625	6	4.327339293027762	0.5773392930277623	0.2936152089969255	240	929.82	0.3	0.501	i	1	5	1	5	0	0				1	70
491375.499836916	491376.999836916	5.35	5.34848054300528	491386.849788666	491380.84983691596	491380.848317459	491380.84983691596	491380.8595775	491386.84983691596	491386.860012625	6	4.327339293027762	0.5773392930277623	0.2936152089969255	240	931.58	0.3	0.501	i	1	5	1	5	0	0				1	70
491375.499836916	491377.749836916	5.35	5.34848054300528	491386.849788666	491380.84983691596	491380.848317459	491380.84983691596	491380.8595775	491386.84983691596	491386.860012625	6	4.327339293027762	0.5773392930277623	0.2936152089969255	240	927.71	0.3	0.501	i	1	5	1	5	0	0				1	70
491375.499836916	491378.499836916	5.35	5.34848054300528	491386.849788666	491380.84983691596	491380.848317459	491380.84983691596	491380.8595775	491386.84983691596	491386.860012625	6	4.327339293027762	0.5773392930277623	0.2936152089969255	240	928.72	0.3	0.501	i	1	5	1	5	0	0				1	70
491375.499836916	491379.249836916	5.35	5.34848054300528	491386.849788666	491380.84983691596	491380.848317459	491380.84983691596	491380.8595775	491386.84983691596	491386.860012625	6	4.327339293027762	0.5773392930277623	0.2936152089969255	240	1090.78	0.3	0.501	i	1	5	1	5	1	0				1	70
491375.499836916	491379.999836916	5.35	5.34848054300528	491386.849788666	491380.84983691596	491380.848317459	491380.84983691596	491380.8595775	491386.84983691596	491386.860012625	6	4.327339293027762	0.5773392930277623	0.2936152089969255	240	928.78	0.3	0.501	i	1	5	1	5	0	0				1	70
491375.499836916	491380.749836916	5.35	5.34848054300528	491386.849788666	491380.84983691596	491380.848317459	491380.84983691596	491380.8595775	491386.84983691596	491386.860012625	6	4.327339293027762	0.5773392930277623	0.2936152089969255	240	939.42	0.3	0.501	i	1	5	1	5	0	0				1	70
491390.86383425	491390.86383425	5.35	5.348524999979418	491402.21378625	491396.21383425	491396.21235925	491396.21383425	491396.225312334	491402.21383425	491402.21476225	6	4.262218958989251	0.5122189589892514	0.32714549999218434	240	923.7	0.3	0.501	i	1	5	1	5	0	1	l	1	0.6698872920242138	1	71
491390.86383425	491391.61383425	5.35	5.348524999979418	491402.21378625	491396.21383425	491396.21235925	491396.21383425	491396.225312334	491402.21383425	491402.21476225	6	4.262218958989251	0.5122189589892514	0.32714549999218434	240	927.77	0.3	0.501	i	1	5	1	5	0	1	l	1	0.6698872920242138	1	71
491390.86383425	491392.36383425	5.35	5.348524999979418	491402.21378625	491396.21383425	491396.21235925	491396.21383425	491396.225312334	491402.21383425	491402.21476225	6	4.262218958989251	0.5122189589892514	0.32714549999218434	240	923.97	0.3	0.501	i	1	5	1	5	0	1	l	1	0.6698872920242138	1	71
491390.86383425	491393.11383425	5.35	5.348524999979418	491402.21378625	491396.21383425	491396.21235925	491396.21383425	491396.225312334	491402.21383425	491402.21476225	6	4.262218958989251	0.5122189589892514	0.32714549999218434	240	916.29	0.3	0.501	i	1	5	1	5	0	1	l	1	0.6698872920242138	1	71
491390.86383425	491393.86383425	5.35	5.348524999979418	491402.21378625	491396.21383425	491396.21235925	491396.21383425	491396.225312334	491402.21383425	491402.21476225	6	4.262218958989251	0.5122189589892514	0.32714549999218434	240	917.31	0.3	0.501	i	1	5	1	5	0	1	l	1	0.6698872920242138	1	71
491390.86383425	491394.61383425	5.35	5.348524999979418	491402.21378625	491396.21383425	491396.21235925	491396.21383425	491396.225312334	491402.21383425	491402.21476225	6	4.262218958989251	0.5122189589892514	0.32714549999218434	240	1091.5	0.3	0.501	i	1	5	1	5	1	1	l	1	0.6698872920242138	1	71
491390.86383425	491395.36383425	5.35	5.348524999979418	491402.21378625	491396.21383425	491396.21235925	491396.21383425	491396.225312334	491402.21383425	491402.21476225	6	4.262218958989251	0.5122189589892514	0.32714549999218434	240	928.23	0.3	0.501	i	1	5	1	5	0	1	l	1	0.6698872920242138	1	71
491390.86383425	491396.11383425	5.35	5.348524999979418	491402.21378625	491396.21383425	491396.21235925	491396.21383425	491396.225312334	491402.21383425	491402.21476225	6	4.262218958989251	0.5122189589892514	0.32714549999218434	240	911.1	0.3	0.501	i	1	5	1	5	0	1	l	1	0.6698872920242138	1	71
491402.220348708	491402.220348708	5.35	5.343359376012813	491413.570300208	491407.57034870796	491407.563708084	491407.57034870796	491407.576734125	491413.57034870796	491413.576370375	6				240	920.0	0.3	0.501		3		1	4	0	0				1	72
491402.220348708	491402.970348708	5.35	5.343359376012813	491413.570300208	491407.57034870796	491407.563708084	491407.57034870796	491407.576734125	491413.57034870796	491413.576370375	6				240	917.04	0.3	0.501		3		1	4	0	0				1	72
491402.220348708	491403.720348708	5.35	5.343359376012813	491413.570300208	491407.57034870796	491407.563708084	491407.57034870796	491407.576734125	491413.57034870796	491413.576370375	6				240	913.84	0.3	0.501		3		1	4	0	0				1	72
491402.220348708	491404.470348708	5.35	5.343359376012813	491413.570300208	491407.57034870796	491407.563708084	491407.57034870796	491407.576734125	491413.57034870796	491413.576370375	6				240	928.93	0.3	0.501		3		1	4	0	0				1	72
491402.220348708	491405.220348708	5.35	5.343359376012813	491413.570300208	491407.57034870796	491407.563708084	491407.57034870796	491407.576734125	491413.57034870796	491413.576370375	6				240	1080.12	0.3	0.501		3		1	4	1	0				1	72
491402.220348708	491405.970348708	5.35	5.343359376012813	491413.570300208	491407.57034870796	491407.563708084	491407.57034870796	491407.576734125	491413.57034870796	491413.576370375	6				240	920.63	0.3	0.501		3		1	4	0	0				1	72
491402.220348708	491406.720348708	5.35	5.343359376012813	491413.570300208	491407.57034870796	491407.563708084	491407.57034870796	491407.576734125	491413.57034870796	491413.576370375	6				240	934.35	0.3	0.501		3		1	4	0	0				1	72
491402.220348708	491407.470348708	5.35	5.343359376012813	491413.570300208	491407.57034870796	491407.563708084	491407.57034870796	491407.576734125	491413.57034870796	491413.576370375	6				240	922.76	0.3	0.501		3		1	4	0	0				1	72
491413.582487666	491413.582487666	5.35	5.348390876024496	491424.93243825	491418.93248766597	491418.930878542	491418.93248766597	491418.943092459	491424.93248766597	491424.942625167	6				240	921.21	0.3	0.501		3		1	4	0	0				1	73
491413.582487666	491414.332487666	5.35	5.348390876024496	491424.93243825	491418.93248766597	491418.930878542	491418.93248766597	491418.943092459	491424.93248766597	491424.942625167	6				240	916.69	0.3	0.501		3		1	4	0	0				1	73
491413.582487666	491415.082487666	5.35	5.348390876024496	491424.93243825	491418.93248766597	491418.930878542	491418.93248766597	491418.943092459	491424.93248766597	491424.942625167	6				240	917.22	0.3	0.501		3		1	4	0	0				1	73
491413.582487666	491415.832487666	5.35	5.348390876024496	491424.93243825	491418.93248766597	491418.930878542	491418.93248766597	491418.943092459	491424.93248766597	491424.942625167	6				240	913.92	0.3	0.501		3		1	4	0	0				1	73
491413.582487666	491416.582487666	5.35	5.348390876024496	491424.93243825	491418.93248766597	491418.930878542	491418.93248766597	491418.943092459	491424.93248766597	491424.942625167	6				240	1084.03	0.3	0.501		3		1	4	1	0				1	73
491413.582487666	491417.332487666	5.35	5.348390876024496	491424.93243825	491418.93248766597	491418.930878542	491418.93248766597	491418.943092459	491424.93248766597	491424.942625167	6				240	923.01	0.3	0.501		3		1	4	0	0				1	73
491413.582487666	491418.082487666	5.35	5.348390876024496	491424.93243825	491418.93248766597	491418.930878542	491418.93248766597	491418.943092459	491424.93248766597	491424.942625167	6				240	915.13	0.3	0.501		3		1	4	0	0				1	73
491413.582487666	491418.832487666	5.35	5.348390876024496	491424.93243825	491418.93248766597	491418.930878542	491418.93248766597	491418.943092459	491424.93248766597	491424.942625167	6				240	921.73	0.3	0.501		3		1	4	0	0				1	73
491424.948063166	491424.948063166	5.35	5.349393251002766	491436.298014333	491430.298063166	491430.297456417	491430.298063166	491430.309991667	491436.298063166	491436.309998875	6				240	918.2	0.3	0.501		3		0	2	0	0				1	74
491424.948063166	491425.698063166	5.35	5.349393251002766	491436.298014333	491430.298063166	491430.297456417	491430.298063166	491430.309991667	491436.298063166	491436.309998875	6				240	918.36	0.3	0.501		3		0	2	0	0				1	74
491424.948063166	491426.448063166	5.35	5.349393251002766	491436.298014333	491430.298063166	491430.297456417	491430.298063166	491430.309991667	491436.298063166	491436.309998875	6				240	1116.24	0.3	0.501		3		0	2	1	0				1	74
491424.948063166	491427.198063166	5.35	5.349393251002766	491436.298014333	491430.298063166	491430.297456417	491430.298063166	491430.309991667	491436.298063166	491436.309998875	6				240	919.98	0.3	0.501		3		0	2	0	0				1	74
491424.948063166	491427.948063166	5.35	5.349393251002766	491436.298014333	491430.298063166	491430.297456417	491430.298063166	491430.309991667	491436.298063166	491436.309998875	6				240	913.62	0.3	0.501		3		0	2	0	0				1	74
491424.948063166	491428.698063166	5.35	5.349393251002766	491436.298014333	491430.298063166	491430.297456417	491430.298063166	491430.309991667	491436.298063166	491436.309998875	6				240	913.21	0.3	0.501		3		0	2	0	0				1	74
491424.948063166	491429.448063166	5.35	5.349393251002766	491436.298014333	491430.298063166	491430.297456417	491430.298063166	491430.309991667	491436.298063166	491436.309998875	6				240	911.22	0.3	0.501		3		0	2	0	0				1	74
491424.948063166	491430.198063166	5.35	5.349393251002766	491436.298014333	491430.298063166	491430.297456417	491430.298063166	491430.309991667	491436.298063166	491436.309998875	6				240	923.84	0.3	0.501		3		0	2	0	0				1	74
491436.31582675	491436.31582675	5.35	5.347404874977656	491447.665778	491441.66582675	491441.663231625	491441.66582675	491441.676400334	491447.66582675	491447.674318292	6				240	920.64	0.3	0.501		3		0	4	0	0				1	75
491436.31582675	491437.06582675	5.35	5.347404874977656	491447.665778	491441.66582675	491441.663231625	491441.66582675	491441.676400334	491447.66582675	491447.674318292	6				240	924.24	0.3	0.501		3		0	4	0	0				1	75
491436.31582675	491437.81582675	5.35	5.347404874977656	491447.665778	491441.66582675	491441.663231625	491441.66582675	491441.676400334	491447.66582675	491447.674318292	6				240	931.21	0.3	0.501		3		0	4	0	0				1	75
491436.31582675	491438.56582675	5.35	5.347404874977656	491447.665778	491441.66582675	491441.663231625	491441.66582675	491441.676400334	491447.66582675	491447.674318292	6				240	934.51	0.3	0.501		3		0	4	0	0				1	75
491436.31582675	491439.31582675	5.35	5.347404874977656	491447.665778	491441.66582675	491441.663231625	491441.66582675	491441.676400334	491447.66582675	491447.674318292	6				240	1117.42	0.3	0.501		3		0	4	1	0				1	75
491436.31582675	491440.06582675	5.35	5.347404874977656	491447.665778	491441.66582675	491441.663231625	491441.66582675	491441.676400334	491447.66582675	491447.674318292	6				240	923.92	0.3	0.501		3		0	4	0	0				1	75
491436.31582675	491440.81582675	5.35	5.347404874977656	491447.665778	491441.66582675	491441.663231625	491441.66582675	491441.676400334	491447.66582675	491447.674318292	6				240	921.33	0.3	0.501		3		0	4	0	0				1	75
491436.31582675	491441.56582675	5.35	5.347404874977656	491447.665778	491441.66582675	491441.663231625	491441.66582675	491441.676400334	491447.66582675	491447.674318292	6				240	924.08	0.3	0.501		3		0	4	0	0				1	75
491447.679840416	491447.679840416	5.35	5.348849000991322	491459.029791458	491453.029840416	491453.028689417	491453.029840416	491453.041864209	491459.029840416	491459.041813834	6				240	922.2	0.3	0.501		3		0	3	0	0				1	76
491447.679840416	491448.429840416	5.35	5.348849000991322	491459.029791458	491453.029840416	491453.028689417	491453.029840416	491453.041864209	491459.029840416	491459.041813834	6				240	916.38	0.3	0.501		3		0	3	0	0				1	76
491447.679840416	491449.179840416	5.35	5.348849000991322	491459.029791458	491453.029840416	491453.028689417	491453.029840416	491453.041864209	491459.029840416	491459.041813834	6				240	922.04	0.3	0.501		3		0	3	0	0				1	76
491447.679840416	491449.929840416	5.35	5.348849000991322	491459.029791458	491453.029840416	491453.028689417	491453.029840416	491453.041864209	491459.029840416	491459.041813834	6				240	1120.57	0.3	0.501		3		0	3	1	0				1	76
491447.679840416	491450.679840416	5.35	5.348849000991322	491459.029791458	491453.029840416	491453.028689417	491453.029840416	491453.041864209	491459.029840416	491459.041813834	6				240	919.78	0.3	0.501		3		0	3	0	0				1	76
491447.679840416	491451.429840416	5.35	5.348849000991322	491459.029791458	491453.029840416	491453.028689417	491453.029840416	491453.041864209	491459.029840416	491459.041813834	6				240	918.99	0.3	0.501		3		0	3	0	0				1	76
491447.679840416	491452.179840416	5.35	5.348849000991322	491459.029791458	491453.029840416	491453.028689417	491453.029840416	491453.041864209	491459.029840416	491459.041813834	6				240	915.36	0.3	0.501		3		0	3	0	0				1	76
491447.679840416	491452.929840416	5.35	5.348849000991322	491459.029791458	491453.029840416	491453.028689417	491453.029840416	491453.041864209	491459.029840416	491459.041813834	6				240	914.66	0.3	0.501		3		0	3	0	0				1	76
491459.046978875	491459.046978875	5.35	5.346061084012035	491470.398221708	491464.396978875	491464.393039959	491464.396978875	491464.397109209	491470.396978875	491470.409486	6				240	924.38	0.3	0.501		3		0	2	0	0				1	77
491459.046978875	491459.796978875	5.35	5.346061084012035	491470.398221708	491464.396978875	491464.393039959	491464.396978875	491464.397109209	491470.396978875	491470.409486	6				240	904.14	0.3	0.501		3		0	2	0	0				1	77
491459.046978875	491460.546978875	5.35	5.346061084012035	491470.398221708	491464.396978875	491464.393039959	491464.396978875	491464.397109209	491470.396978875	491470.409486	6				240	1113.64	0.3	0.501		3		0	2	1	0				1	77
491459.046978875	491461.296978875	5.35	5.346061084012035	491470.398221708	491464.396978875	491464.393039959	491464.396978875	491464.397109209	491470.396978875	491470.409486	6				240	909.18	0.3	0.501		3		0	2	0	0				1	77
491459.046978875	491462.046978875	5.35	5.346061084012035	491470.398221708	491464.396978875	491464.393039959	491464.396978875	491464.397109209	491470.396978875	491470.409486	6				240	914.38	0.3	0.501		3		0	2	0	0				1	77
491459.046978875	491462.796978875	5.35	5.346061084012035	491470.398221708	491464.396978875	491464.393039959	491464.396978875	491464.397109209	491470.396978875	491470.409486	6				240	920.43	0.3	0.501		3		0	2	0	0				1	77
491459.046978875	491463.546978875	5.35	5.346061084012035	491470.398221708	491464.396978875	491464.393039959	491464.396978875	491464.397109209	491470.396978875	491470.409486	6				240	919.01	0.3	0.501		3		0	2	0	0				1	77
491459.046978875	491464.296978875	5.35	5.346061084012035	491470.398221708	491464.396978875	491464.393039959	491464.396978875	491464.397109209	491470.396978875	491470.409486	6				240	907.87	0.3	0.501		3		0	2	0	0				1	77
491470.415096625	491470.415096625	5.35	5.349000999995042	491481.765048625	491475.76509662496	491475.764097625	491475.76509662496	491475.77641275	491481.76509662496	491481.7755415	6				240	908.19	0.3	0.501		3		0	4	0	0				1	78
491470.415096625	491471.165096625	5.35	5.349000999995042	491481.765048625	491475.76509662496	491475.764097625	491475.76509662496	491475.77641275	491481.76509662496	491481.7755415	6				240	904.04	0.3	0.501		3		0	4	0	0				1	78
491470.415096625	491471.915096625	5.35	5.349000999995042	491481.765048625	491475.76509662496	491475.764097625	491475.76509662496	491475.77641275	491481.76509662496	491481.7755415	6				240	914.71	0.3	0.501		3		0	4	0	0				1	78
491470.415096625	491472.665096625	5.35	5.349000999995042	491481.765048625	491475.76509662496	491475.764097625	491475.76509662496	491475.77641275	491481.76509662496	491481.7755415	6				240	909.38	0.3	0.501		3		0	4	0	0				1	78
491470.415096625	491473.415096625	5.35	5.349000999995042	491481.765048625	491475.76509662496	491475.764097625	491475.76509662496	491475.77641275	491481.76509662496	491481.7755415	6				240	1094.64	0.3	0.501		3		0	4	1	0				1	78
491470.415096625	491474.165096625	5.35	5.349000999995042	491481.765048625	491475.76509662496	491475.764097625	491475.76509662496	491475.77641275	491481.76509662496	491481.7755415	6				240	914.03	0.3	0.501		3		0	4	0	0				1	78
491470.415096625	491474.915096625	5.35	5.349000999995042	491481.765048625	491475.76509662496	491475.764097625	491475.76509662496	491475.77641275	491481.76509662496	491481.7755415	6				240	921.76	0.3	0.501		3		0	4	0	0				1	78
491470.415096625	491475.665096625	5.35	5.349000999995042	491481.765048625	491475.76509662496	491475.764097625	491475.76509662496	491475.77641275	491481.76509662496	491481.7755415	6				240	911.09	0.3	0.501		3		0	4	0	0				1	78
491481.78098608303	491481.78098608303	5.35	5.349873166996986	491493.130938625	491487.130986083	491487.13085925	491487.130986083	491487.142950667	491493.130986083	491493.142836917	6				240	918.14	0.3	0.501		3		0	3	0	0				1	79
491481.78098608303	491482.53098608303	5.35	5.349873166996986	491493.130938625	491487.130986083	491487.13085925	491487.130986083	491487.142950667	491493.130986083	491493.142836917	6				240	912.85	0.3	0.501		3		0	3	0	0				1	79
491481.78098608303	491483.28098608303	5.35	5.349873166996986	491493.130938625	491487.130986083	491487.13085925	491487.130986083	491487.142950667	491493.130986083	491493.142836917	6				240	912.78	0.3	0.501		3		0	3	0	0				1	79
491481.78098608303	491484.03098608303	5.35	5.349873166996986	491493.130938625	491487.130986083	491487.13085925	491487.130986083	491487.142950667	491493.130986083	491493.142836917	6				240	1096.1	0.3	0.501		3		0	3	1	0				1	79
491481.78098608303	491484.78098608303	5.35	5.349873166996986	491493.130938625	491487.130986083	491487.13085925	491487.130986083	491487.142950667	491493.130986083	491493.142836917	6				240	921.03	0.3	0.501		3		0	3	0	0				1	79
491481.78098608303	491485.53098608303	5.35	5.349873166996986	491493.130938625	491487.130986083	491487.13085925	491487.130986083	491487.142950667	491493.130986083	491493.142836917	6				240	922.39	0.3	0.501		3		0	3	0	0				1	79
491481.78098608303	491486.28098608303	5.35	5.349873166996986	491493.130938625	491487.130986083	491487.13085925	491487.130986083	491487.142950667	491493.130986083	491493.142836917	6				240	921.16	0.3	0.501		3		0	3	0	0				1	79
491481.78098608303	491487.03098608303	5.35	5.349873166996986	491493.130938625	491487.130986083	491487.13085925	491487.130986083	491487.142950667	491493.130986083	491493.142836917	6				240	919.8	0.3	0.501		3		0	3	0	0				1	79
491497.146859583	491497.146859583	5.35	5.348622376041021	491508.49681325	491502.49685958296	491502.495481959	491502.49685958296	491502.508122709	491508.49685958296	491508.509337459	6				240	915.16	0.3	0.501		3		0	2	0	1				1	80
491497.146859583	491497.896859583	5.35	5.348622376041021	491508.49681325	491502.49685958296	491502.495481959	491502.49685958296	491502.508122709	491508.49685958296	491508.509337459	6				240	929.42	0.3	0.501		3		0	2	0	1				1	80
491497.146859583	491498.646859583	5.35	5.348622376041021	491508.49681325	491502.49685958296	491502.495481959	491502.49685958296	491502.508122709	491508.49685958296	491508.509337459	6				240	1094.64	0.3	0.501		3		0	2	1	1				1	80
491497.146859583	491499.396859583	5.35	5.348622376041021	491508.49681325	491502.49685958296	491502.495481959	491502.49685958296	491502.508122709	491508.49685958296	491508.509337459	6				240	926.88	0.3	0.501		3		0	2	0	1				1	80
491497.146859583	491500.146859583	5.35	5.348622376041021	491508.49681325	491502.49685958296	491502.495481959	491502.49685958296	491502.508122709	491508.49685958296	491508.509337459	6				240	925.23	0.3	0.501		3		0	2	0	1				1	80
491497.146859583	491500.896859583	5.35	5.348622376041021	491508.49681325	491502.49685958296	491502.495481959	491502.49685958296	491502.508122709	491508.49685958296	491508.509337459	6				240	927.03	0.3	0.501		3		0	2	0	1				1	80
491497.146859583	491501.646859583	5.35	5.348622376041021	491508.49681325	491502.49685958296	491502.495481959	491502.49685958296	491502.508122709	491508.49685958296	491508.509337459	6				240	926.89	0.3	0.501		3		0	2	0	1				1	80
491497.146859583	491502.396859583	5.35	5.348622376041021	491508.49681325	491502.49685958296	491502.495481959	491502.49685958296	491502.508122709	491508.49685958296	491508.509337459	6				240	938.18	0.3	0.501		3		0	2	0	1				1	80
491508.515250666	491508.515250666	5.35	5.348201375978533	491519.865203416	491513.865250666	491513.863452042	491513.865250666	491513.876077167	491519.865250666	491519.876107917	6				240	934.31	0.3	0.501		3		0	3	0	0				1	81
491508.515250666	491509.265250666	5.35	5.348201375978533	491519.865203416	491513.865250666	491513.863452042	491513.865250666	491513.876077167	491519.865250666	491519.876107917	6				240	930.55	0.3	0.501		3		0	3	0	0				1	81
491508.515250666	491510.015250666	5.35	5.348201375978533	491519.865203416	491513.865250666	491513.863452042	491513.865250666	491513.876077167	491519.865250666	491519.876107917	6				240	926.81	0.3	0.501		3		0	3	0	0				1	81
491508.515250666	491510.765250666	5.35	5.348201375978533	491519.865203416	491513.865250666	491513.863452042	491513.865250666	491513.876077167	491519.865250666	491519.876107917	6				240	1097.55	0.3	0.501		3		0	3	1	0				1	81
491508.515250666	491511.515250666	5.35	5.348201375978533	491519.865203416	491513.865250666	491513.863452042	491513.865250666	491513.876077167	491519.865250666	491519.876107917	6				240	932.11	0.3	0.501		3		0	3	0	0				1	81
491508.515250666	491512.265250666	5.35	5.348201375978533	491519.865203416	491513.865250666	491513.863452042	491513.865250666	491513.876077167	491519.865250666	491519.876107917	6				240	936.51	0.3	0.501		3		0	3	0	0				1	81
491508.515250666	491513.015250666	5.35	5.348201375978533	491519.865203416	491513.865250666	491513.863452042	491513.865250666	491513.876077167	491519.865250666	491519.876107917	6				240	932.06	0.3	0.501		3		0	3	0	0				1	81
491508.515250666	491513.765250666	5.35	5.348201375978533	491519.865203416	491513.865250666	491513.863452042	491513.865250666	491513.876077167	491519.865250666	491519.876107917	6				240	921.52	0.3	0.501		3		0	3	0	0				1	81
491519.882078291	491519.882078291	5.35	5.348464834038168	491531.232030416	491525.23207829095	491525.230543125	491525.23207829095	491525.242680459	491531.23207829095	491531.242545667	6				240	932.33	0.3	0.501		3		1	4	0	0				1	82
491519.882078291	491520.632078291	5.35	5.348464834038168	491531.232030416	491525.23207829095	491525.230543125	491525.23207829095	491525.242680459	491531.23207829095	491531.242545667	6				240	926.22	0.3	0.501		3		1	4	0	0				1	82
491519.882078291	491521.382078291	5.35	5.348464834038168	491531.232030416	491525.23207829095	491525.230543125	491525.23207829095	491525.242680459	491531.23207829095	491531.242545667	6				240	926.94	0.3	0.501		3		1	4	0	0				1	82
491519.882078291	491522.132078291	5.35	5.348464834038168	491531.232030416	491525.23207829095	491525.230543125	491525.23207829095	491525.242680459	491531.23207829095	491531.242545667	6				240	924.69	0.3	0.501		3		1	4	0	0				1	82
491519.882078291	491522.882078291	5.35	5.348464834038168	491531.232030416	491525.23207829095	491525.230543125	491525.23207829095	491525.242680459	491531.23207829095	491531.242545667	6				240	1066.32	0.3	0.501		3		1	4	1	0				1	82
491519.882078291	491523.632078291	5.35	5.348464834038168	491531.232030416	491525.23207829095	491525.230543125	491525.23207829095	491525.242680459	491531.23207829095	491531.242545667	6				240	922.65	0.3	0.501		3		1	4	0	0				1	82
491519.882078291	491524.382078291	5.35	5.348464834038168	491531.232030416	491525.23207829095	491525.230543125	491525.23207829095	491525.242680459	491531.23207829095	491531.242545667	6				240	918.84	0.3	0.501		3		1	4	0	0				1	82
491519.882078291	491525.132078291	5.35	5.348464834038168	491531.232030416	491525.23207829095	491525.230543125	491525.23207829095	491525.242680459	491531.23207829095	491531.242545667	6				240	932.87	0.3	0.501		3		1	4	0	0				1	82
491531.247967833	491531.247967833	5.35	5.349133084004279	491542.597919208	491536.597967833	491536.597100917	491536.597967833	491536.609355917	491542.597967833	491542.609367042	6				240	932.7	0.3	0.501		3		1	5	0	0				1	83
491531.247967833	491531.997967833	5.35	5.349133084004279	491542.597919208	491536.597967833	491536.597100917	491536.597967833	491536.609355917	491542.597967833	491542.609367042	6				240	940.2	0.3	0.501		3		1	5	0	0				1	83
491531.247967833	491532.747967833	5.35	5.349133084004279	491542.597919208	491536.597967833	491536.597100917	491536.597967833	491536.609355917	491542.597967833	491542.609367042	6				240	935.4	0.3	0.501		3		1	5	0	0				1	83
491531.247967833	491533.497967833	5.35	5.349133084004279	491542.597919208	491536.597967833	491536.597100917	491536.597967833	491536.609355917	491542.597967833	491542.609367042	6				240	944.83	0.3	0.501		3		1	5	0	0				1	83
491531.247967833	491534.247967833	5.35	5.349133084004279	491542.597919208	491536.597967833	491536.597100917	491536.597967833	491536.609355917	491542.597967833	491542.609367042	6				240	939.16	0.3	0.501		3		1	5	0	0				1	83
491531.247967833	491534.997967833	5.35	5.349133084004279	491542.597919208	491536.597967833	491536.597100917	491536.597967833	491536.609355917	491542.597967833	491542.609367042	6				240	1092.62	0.3	0.501		3		1	5	1	0				1	83
491531.247967833	491535.747967833	5.35	5.349133084004279	491542.597919208	491536.597967833	491536.597100917	491536.597967833	491536.609355917	491542.597967833	491542.609367042	6				240	950.53	0.3	0.501		3		1	5	0	0				1	83
491531.247967833	491536.497967833	5.35	5.349133084004279	491542.597919208	491536.597967833	491536.597100917	491536.597967833	491536.609355917	491542.597967833	491542.609367042	6				240	935.47	0.3	0.501		3		1	5	0	0				1	83
491542.614794166	491542.614794166	5.35	5.348931000975426	491553.964746041	491547.964794166	491547.963725167	491547.964794166	491547.975991459	491553.964794166	491553.975975959	6				240	940.47	0.3	0.501		3		1	5	0	0				1	84
491542.614794166	491543.364794166	5.35	5.348931000975426	491553.964746041	491547.964794166	491547.963725167	491547.964794166	491547.975991459	491553.964794166	491553.975975959	6				240	928.96	0.3	0.501		3		1	5	0	0				1	84
491542.614794166	491544.114794166	5.35	5.348931000975426	491553.964746041	491547.964794166	491547.963725167	491547.964794166	491547.975991459	491553.964794166	491553.975975959	6				240	936.25	0.3	0.501		3		1	5	0	0				1	84
491542.614794166	491544.864794166	5.35	5.348931000975426	491553.964746041	491547.964794166	491547.963725167	491547.964794166	491547.975991459	491553.964794166	491553.975975959	6				240	925.98	0.3	0.501		3		1	5	0	0				1	84
491542.614794166	491545.614794166	5.35	5.348931000975426	491553.964746041	491547.964794166	491547.963725167	491547.964794166	491547.975991459	491553.964794166	491553.975975959	6				240	925.46	0.3	0.501		3		1	5	0	0				1	84
491542.614794166	491546.364794166	5.35	5.348931000975426	491553.964746041	491547.964794166	491547.963725167	491547.964794166	491547.975991459	491553.964794166	491553.975975959	6				240	1092.46	0.3	0.501		3		1	5	1	0				1	84
491542.614794166	491547.114794166	5.35	5.348931000975426	491553.964746041	491547.964794166	491547.963725167	491547.964794166	491547.975991459	491553.964794166	491553.975975959	6				240	921.21	0.3	0.501		3		1	5	0	0				1	84
491542.614794166	491547.864794166	5.35	5.348931000975426	491553.964746041	491547.964794166	491547.963725167	491547.964794166	491547.975991459	491553.964794166	491553.975975959	6				240	924.33	0.3	0.501		3		1	5	0	0				1	84
491557.980042	491557.980042	5.35	5.3460199169931	491569.329994916	491563.330042	491563.326061917	491563.330042	491563.330739875	491569.330042	491569.342448667	6				240	926.9	0.3	0.501		3		1	5	0	1				1	85
491557.980042	491558.730042	5.35	5.3460199169931	491569.329994916	491563.330042	491563.326061917	491563.330042	491563.330739875	491569.330042	491569.342448667	6				240	926.43	0.3	0.501		3		1	5	0	1				1	85
491557.980042	491559.480042	5.35	5.3460199169931	491569.329994916	491563.330042	491563.326061917	491563.330042	491563.330739875	491569.330042	491569.342448667	6				240	916.3	0.3	0.501		3		1	5	0	1				1	85
491557.980042	491560.230042	5.35	5.3460199169931	491569.329994916	491563.330042	491563.326061917	491563.330042	491563.330739875	491569.330042	491569.342448667	6				240	920.89	0.3	0.501		3		1	5	0	1				1	85
491557.980042	491560.980042	5.35	5.3460199169931	491569.329994916	491563.330042	491563.326061917	491563.330042	491563.330739875	491569.330042	491569.342448667	6				240	917.42	0.3	0.501		3		1	5	0	1				1	85
491557.980042	491561.730042	5.35	5.3460199169931	491569.329994916	491563.330042	491563.326061917	491563.330042	491563.330739875	491569.330042	491569.342448667	6				240	1096.93	0.3	0.501		3		1	5	1	1				1	85
491557.980042	491562.480042	5.35	5.3460199169931	491569.329994916	491563.330042	491563.326061917	491563.330042	491563.330739875	491569.330042	491569.342448667	6				240	912.58	0.3	0.501		3		1	5	0	1				1	85
491557.980042	491563.230042	5.35	5.3460199169931	491569.329994916	491563.330042	491563.326061917	491563.330042	491563.330739875	491569.330042	491569.342448667	6				240	913.41	0.3	0.501		3		1	5	0	1				1	85
491569.348432375	491569.348432375	5.35	5.348628124978859	491580.698384083	491574.698432375	491574.6970605	491574.698432375	491574.70927675	491580.698432375	491580.70949625	6				240	929.13	0.3	0.501		3		1	6	0	0				1	86
491569.348432375	491570.098432375	5.35	5.348628124978859	491580.698384083	491574.698432375	491574.6970605	491574.698432375	491574.70927675	491580.698432375	491580.70949625	6				240	925.56	0.3	0.501		3		1	6	0	0				1	86
491569.348432375	491570.848432375	5.35	5.348628124978859	491580.698384083	491574.698432375	491574.6970605	491574.698432375	491574.70927675	491580.698432375	491580.70949625	6				240	927.61	0.3	0.501		3		1	6	0	0				1	86
491569.348432375	491571.598432375	5.35	5.348628124978859	491580.698384083	491574.698432375	491574.6970605	491574.698432375	491574.70927675	491580.698432375	491580.70949625	6				240	938.49	0.3	0.501		3		1	6	0	0				1	86
491569.348432375	491572.348432375	5.35	5.348628124978859	491580.698384083	491574.698432375	491574.6970605	491574.698432375	491574.70927675	491580.698432375	491580.70949625	6				240	935.63	0.3	0.501		3		1	6	0	0				1	86
491569.348432375	491573.098432375	5.35	5.348628124978859	491580.698384083	491574.698432375	491574.6970605	491574.698432375	491574.70927675	491580.698432375	491580.70949625	6				240	928.82	0.3	0.501		3		1	6	0	0				1	86
491569.348432375	491573.848432375	5.35	5.348628124978859	491580.698384083	491574.698432375	491574.6970605	491574.698432375	491574.70927675	491580.698432375	491580.70949625	6				240	1076.84	0.3	0.501		3		1	6	1	0				1	86
491569.348432375	491574.598432375	5.35	5.348628124978859	491580.698384083	491574.698432375	491574.6970605	491574.698432375	491574.70927675	491580.698432375	491580.70949625	6				240	932.2	0.3	0.501		3		1	6	0	0				1	86
491580.715259041	491580.715259041	5.35	5.349246500991285	491592.065211416	491586.065259041	491586.064505542	491586.065259041	491586.0760615	491592.065259041	491592.07505475	6				240	924.3	0.3	0.501		3		1	6	0	0				1	87
491580.715259041	491581.465259041	5.35	5.349246500991285	491592.065211416	491586.065259041	491586.064505542	491586.065259041	491586.0760615	491592.065259041	491592.07505475	6				240	933.93	0.3	0.501		3		1	6	0	0				1	87
491580.715259041	491582.215259041	5.35	5.349246500991285	491592.065211416	491586.065259041	491586.064505542	491586.065259041	491586.0760615	491592.065259041	491592.07505475	6				240	933.68	0.3	0.501		3		1	6	0	0				1	87
491580.715259041	491582.965259041	5.35	5.349246500991285	491592.065211416	491586.065259041	491586.064505542	491586.065259041	491586.0760615	491592.065259041	491592.07505475	6				240	933.62	0.3	0.501		3		1	6	0	0				1	87
491580.715259041	491583.715259041	5.35	5.349246500991285	491592.065211416	491586.065259041	491586.064505542	491586.065259041	491586.0760615	491592.065259041	491592.07505475	6				240	939.59	0.3	0.501		3		1	6	0	0				1	87
491580.715259041	491584.465259041	5.35	5.349246500991285	491592.065211416	491586.065259041	491586.064505542	491586.065259041	491586.0760615	491592.065259041	491592.07505475	6				240	933.45	0.3	0.501		3		1	6	0	0				1	87
491580.715259041	491585.215259041	5.35	5.349246500991285	491592.065211416	491586.065259041	491586.064505542	491586.065259041	491586.0760615	491592.065259041	491592.07505475	6				240	1059.55	0.3	0.501		3		1	6	1	0				1	87
491580.715259041	491585.965259041	5.35	5.349246500991285	491592.065211416	491586.065259041	491586.064505542	491586.065259041	491586.0760615	491592.065259041	491592.07505475	6				240	927.32	0.3	0.501		3		1	6	0	0				1	87
491596.078945166	491596.078945166	5.35	5.347881292982493	491607.428900208	491601.428945166	491601.426826459	491601.428945166	491601.432270584	491607.428945166	491607.44024325	6				240	928.48	0.3	0.501		3		1	4	0	1				1	88
491596.078945166	491596.828945166	5.35	5.347881292982493	491607.428900208	491601.428945166	491601.426826459	491601.428945166	491601.432270584	491607.428945166	491607.44024325	6				240	923.55	0.3	0.501		3		1	4	0	1				1	88
491596.078945166	491597.578945166	5.35	5.347881292982493	491607.428900208	491601.428945166	491601.426826459	491601.428945166	491601.432270584	491607.428945166	491607.44024325	6				240	921.4	0.3	0.501		3		1	4	0	1				1	88
491596.078945166	491598.328945166	5.35	5.347881292982493	491607.428900208	491601.428945166	491601.426826459	491601.428945166	491601.432270584	491607.428945166	491607.44024325	6				240	918.52	0.3	0.501		3		1	4	0	1				1	88
491596.078945166	491599.078945166	5.35	5.347881292982493	491607.428900208	491601.428945166	491601.426826459	491601.428945166	491601.432270584	491607.428945166	491607.44024325	6				240	1056.31	0.3	0.501		3		1	4	1	1				1	88
491596.078945166	491599.828945166	5.35	5.347881292982493	491607.428900208	491601.428945166	491601.426826459	491601.428945166	491601.432270584	491607.428945166	491607.44024325	6				240	909.9	0.3	0.501		3		1	4	0	1				1	88
491596.078945166	491600.578945166	5.35	5.347881292982493	491607.428900208	491601.428945166	491601.426826459	491601.428945166	491601.432270584	491607.428945166	491607.44024325	6				240	912.98	0.3	0.501		3		1	4	0	1				1	88
491596.078945166	491601.328945166	5.35	5.347881292982493	491607.428900208	491601.428945166	491601.426826459	491601.428945166	491601.432270584	491607.428945166	491607.44024325	6				240	914.8	0.3	0.501		3		1	4	0	1				1	88
491607.445775166	491607.445775166	5.35	5.346796875994187	491618.79572875	491612.79577516596	491612.792572042	491612.79577516596	491612.797396	491618.79577516596	491618.797123375	6				240	920.81	0.3	0.501		3		1	4	0	0				1	89
491607.445775166	491608.195775166	5.35	5.346796875994187	491618.79572875	491612.79577516596	491612.792572042	491612.79577516596	491612.797396	491618.79577516596	491618.797123375	6				240	915.41	0.3	0.501		3		1	4	0	0				1	89
491607.445775166	491608.945775166	5.35	5.346796875994187	491618.79572875	491612.79577516596	491612.792572042	491612.79577516596	491612.797396	491618.79577516596	491618.797123375	6				240	918.3	0.3	0.501		3		1	4	0	0				1	89
491607.445775166	491609.695775166	5.35	5.346796875994187	491618.79572875	491612.79577516596	491612.792572042	491612.79577516596	491612.797396	491618.79577516596	491618.797123375	6				240	918.99	0.3	0.501		3		1	4	0	0				1	89
491607.445775166	491610.445775166	5.35	5.346796875994187	491618.79572875	491612.79577516596	491612.792572042	491612.79577516596	491612.797396	491618.79577516596	491618.797123375	6				240	1044.42	0.3	0.501		3		1	4	1	0				1	89
491607.445775166	491611.195775166	5.35	5.346796875994187	491618.79572875	491612.79577516596	491612.792572042	491612.79577516596	491612.797396	491618.79577516596	491618.797123375	6				240	915.74	0.3	0.501		3		1	4	0	0				1	89
491607.445775166	491611.945775166	5.35	5.346796875994187	491618.79572875	491612.79577516596	491612.792572042	491612.79577516596	491612.797396	491618.79577516596	491618.797123375	6				240	914.98	0.3	0.501		3		1	4	0	0				1	89
491607.445775166	491612.695775166	5.35	5.346796875994187	491618.79572875	491612.79577516596	491612.792572042	491612.79577516596	491612.797396	491618.79577516596	491618.797123375	6				240	912.49	0.3	0.501		3		1	4	0	0				1	89
491618.802603708	491618.802603708	5.35	5.344653041975107	491630.152557708	491624.152603708	491624.14725675	491624.152603708	491624.159457417	491630.152603708	491630.1576045	6				240	916.11	0.3	0.501		3		1	6	0	0				1	90
491618.802603708	491619.552603708	5.35	5.344653041975107	491630.152557708	491624.152603708	491624.14725675	491624.152603708	491624.159457417	491630.152603708	491630.1576045	6				240	912.68	0.3	0.501		3		1	6	0	0				1	90
491618.802603708	491620.302603708	5.35	5.344653041975107	491630.152557708	491624.152603708	491624.14725675	491624.152603708	491624.159457417	491630.152603708	491630.1576045	6				240	922.63	0.3	0.501		3		1	6	0	0				1	90
491618.802603708	491621.052603708	5.35	5.344653041975107	491630.152557708	491624.152603708	491624.14725675	491624.152603708	491624.159457417	491630.152603708	491630.1576045	6				240	931.03	0.3	0.501		3		1	6	0	0				1	90
491618.802603708	491621.802603708	5.35	5.344653041975107	491630.152557708	491624.152603708	491624.14725675	491624.152603708	491624.159457417	491630.152603708	491630.1576045	6				240	931.54	0.3	0.501		3		1	6	0	0				1	90
491618.802603708	491622.552603708	5.35	5.344653041975107	491630.152557708	491624.152603708	491624.14725675	491624.152603708	491624.159457417	491630.152603708	491630.1576045	6				240	940.57	0.3	0.501		3		1	6	0	0				1	90
491618.802603708	491623.302603708	5.35	5.344653041975107	491630.152557708	491624.152603708	491624.14725675	491624.152603708	491624.159457417	491630.152603708	491630.1576045	6				240	1064.05	0.3	0.501		3		1	6	1	0				1	90
491618.802603708	491624.052603708	5.35	5.344653041975107	491630.152557708	491624.152603708	491624.14725675	491624.152603708	491624.159457417	491630.152603708	491630.1576045	6				240	942.24	0.3	0.501		3		1	6	0	0				1	90
491634.16160425	491634.16160425	5.35	5.347461958997883	491645.511559666	491639.51160425	491639.509066209	491639.51160425	491639.513708292	491645.51160425	491645.512361417	6				240	936.56	0.3	0.501		3		1	6	0	1				1	91
491634.16160425	491634.91160425	5.35	5.347461958997883	491645.511559666	491639.51160425	491639.509066209	491639.51160425	491639.513708292	491645.51160425	491645.512361417	6				240	944.09	0.3	0.501		3		1	6	0	1				1	91
491634.16160425	491635.66160425	5.35	5.347461958997883	491645.511559666	491639.51160425	491639.509066209	491639.51160425	491639.513708292	491645.51160425	491645.512361417	6				240	926.91	0.3	0.501		3		1	6	0	1				1	91
491634.16160425	491636.41160425	5.35	5.347461958997883	491645.511559666	491639.51160425	491639.509066209	491639.51160425	491639.513708292	491645.51160425	491645.512361417	6				240	917.98	0.3	0.501		3		1	6	0	1				1	91
491634.16160425	491637.16160425	5.35	5.347461958997883	491645.511559666	491639.51160425	491639.509066209	491639.51160425	491639.513708292	491645.51160425	491645.512361417	6				240	927.71	0.3	0.501		3		1	6	0	1				1	91
491634.16160425	491637.91160425	5.35	5.347461958997883	491645.511559666	491639.51160425	491639.509066209	491639.51160425	491639.513708292	491645.51160425	491645.512361417	6				240	925.92	0.3	0.501		3		1	6	0	1				1	91
491634.16160425	491638.66160425	5.35	5.347461958997883	491645.511559666	491639.51160425	491639.509066209	491639.51160425	491639.513708292	491645.51160425	491645.512361417	6				240	1053.91	0.3	0.501		3		1	6	1	1				1	91
491634.16160425	491639.41160425	5.35	5.347461958997883	491645.511559666	491639.51160425	491639.509066209	491639.51160425	491639.513708292	491645.51160425	491645.512361417	6				240	932.71	0.3	0.501		3		1	6	0	1				1	91
491645.517809666	491645.517809666	5.35	5.345833001018036	491656.867762166	491650.867809666	491650.863642667	491650.867809666	491650.876102792	491656.867809666	491656.875826459	6				240	932.94	0.3	0.501		3		1	6	0	0				1	92
491645.517809666	491646.267809666	5.35	5.345833001018036	491656.867762166	491650.867809666	491650.863642667	491650.867809666	491650.876102792	491656.867809666	491656.875826459	6				240	924.54	0.3	0.501		3		1	6	0	0				1	92
491645.517809666	491647.017809666	5.35	5.345833001018036	491656.867762166	491650.867809666	491650.863642667	491650.867809666	491650.876102792	491656.867809666	491656.875826459	6				240	926.92	0.3	0.501		3		1	6	0	0				1	92
491645.517809666	491647.767809666	5.35	5.345833001018036	491656.867762166	491650.867809666	491650.863642667	491650.867809666	491650.876102792	491656.867809666	491656.875826459	6				240	925.82	0.3	0.501		3		1	6	0	0				1	92
491645.517809666	491648.517809666	5.35	5.345833001018036	491656.867762166	491650.867809666	491650.863642667	491650.867809666	491650.876102792	491656.867809666	491656.875826459	6				240	926.32	0.3	0.501		3		1	6	0	0				1	92
491645.517809666	491649.267809666	5.35	5.345833001018036	491656.867762166	491650.867809666	491650.863642667	491650.867809666	491650.876102792	491656.867809666	491656.875826459	6				240	927.66	0.3	0.501		3		1	6	0	0				1	92
491645.517809666	491650.017809666	5.35	5.345833001018036	491656.867762166	491650.867809666	491650.863642667	491650.867809666	491650.876102792	491656.867809666	491656.875826459	6				240	1088.44	0.3	0.501		3		1	6	1	0				1	92
491645.517809666	491650.767809666	5.35	5.345833001018036	491656.867762166	491650.867809666	491650.863642667	491650.867809666	491650.876102792	491656.867809666	491656.875826459	6				240	917.98	0.3	0.501		3		1	6	0	0				1	92
491656.881512125	491656.881512125	5.35	5.348638291994575	491668.231465375	491662.231512125	491662.230150417	491662.231512125	491662.242561167	491668.231512125	491668.241718584	6				240	913.52	0.3	0.501		3		1	6	0	0				1	93
491656.881512125	491657.631512125	5.35	5.348638291994575	491668.231465375	491662.231512125	491662.230150417	491662.231512125	491662.242561167	491668.231512125	491668.241718584	6				240	918.47	0.3	0.501		3		1	6	0	0				1	93
491656.881512125	491658.381512125	5.35	5.348638291994575	491668.231465375	491662.231512125	491662.230150417	491662.231512125	491662.242561167	491668.231512125	491668.241718584	6				240	932.3	0.3	0.501		3		1	6	0	0				1	93
491656.881512125	491659.131512125	5.35	5.348638291994575	491668.231465375	491662.231512125	491662.230150417	491662.231512125	491662.242561167	491668.231512125	491668.241718584	6				240	922.19	0.3	0.501		3		1	6	0	0				1	93
491656.881512125	491659.881512125	5.35	5.348638291994575	491668.231465375	491662.231512125	491662.230150417	491662.231512125	491662.242561167	491668.231512125	491668.241718584	6				240	916.5	0.3	0.501		3		1	6	0	0				1	93
491656.881512125	491660.631512125	5.35	5.348638291994575	491668.231465375	491662.231512125	491662.230150417	491662.231512125	491662.242561167	491668.231512125	491668.241718584	6				240	915.51	0.3	0.501		3		1	6	0	0				1	93
491656.881512125	491661.381512125	5.35	5.348638291994575	491668.231465375	491662.231512125	491662.230150417	491662.231512125	491662.242561167	491668.231512125	491668.241718584	6				240	1064.92	0.3	0.501		3		1	6	1	0				1	93
491656.881512125	491662.131512125	5.35	5.348638291994575	491668.231465375	491662.231512125	491662.230150417	491662.231512125	491662.242561167	491668.231512125	491668.241718584	6				240	924.82	0.3	0.501		3		1	6	0	0				1	93
491668.247090333	491668.247090333	5.35	5.349846458993852	491679.597043625	491673.597090333	491673.596936792	491673.597090333	491673.609184959	491679.597090333	491679.608627584	6				240	908.95	0.3	0.501		3		1	6	0	0				1	94
491668.247090333	491668.997090333	5.35	5.349846458993852	491679.597043625	491673.597090333	491673.596936792	491673.597090333	491673.609184959	491679.597090333	491679.608627584	6				240	915.95	0.3	0.501		3		1	6	0	0				1	94
491668.247090333	491669.747090333	5.35	5.349846458993852	491679.597043625	491673.597090333	491673.596936792	491673.597090333	491673.609184959	491679.597090333	491679.608627584	6				240	917.02	0.3	0.501		3		1	6	0	0				1	94
491668.247090333	491670.497090333	5.35	5.349846458993852	491679.597043625	491673.597090333	491673.596936792	491673.597090333	491673.609184959	491679.597090333	491679.608627584	6				240	922.89	0.3	0.501		3		1	6	0	0				1	94
491668.247090333	491671.247090333	5.35	5.349846458993852	491679.597043625	491673.597090333	491673.596936792	491673.597090333	491673.609184959	491679.597090333	491679.608627584	6				240	925.76	0.3	0.501		3		1	6	0	0				1	94
491668.247090333	491671.997090333	5.35	5.349846458993852	491679.597043625	491673.597090333	491673.596936792	491673.597090333	491673.609184959	491679.597090333	491679.608627584	6				240	917.62	0.3	0.501		3		1	6	0	0				1	94
491668.247090333	491672.747090333	5.35	5.349846458993852	491679.597043625	491673.597090333	491673.596936792	491673.597090333	491673.609184959	491679.597090333	491679.608627584	6				240	1065.65	0.3	0.501		3		1	6	1	0				1	94
491668.247090333	491673.497090333	5.35	5.349846458993852	491679.597043625	491673.597090333	491673.596936792	491673.597090333	491673.609184959	491679.597090333	491679.608627584	6				240	931.76	0.3	0.501		3		1	6	0	0				1	94
491683.612652541	491683.612652541	5.35	5.345991833950393	491694.962607333	491688.962652541	491688.958644375	491688.962652541	491688.963475125	491694.962652541	491694.975750542	6				240	933.72	0.3	0.501		3		1	4	0	1				1	95
491683.612652541	491684.362652541	5.35	5.345991833950393	491694.962607333	491688.962652541	491688.958644375	491688.962652541	491688.963475125	491694.962652541	491694.975750542	6				240	914.51	0.3	0.501		3		1	4	0	1				1	95
491683.612652541	491685.112652541	5.35	5.345991833950393	491694.962607333	491688.962652541	491688.958644375	491688.962652541	491688.963475125	491694.962652541	491694.975750542	6				240	932.08	0.3	0.501		3		1	4	0	1				1	95
491683.612652541	491685.862652541	5.35	5.345991833950393	491694.962607333	491688.962652541	491688.958644375	491688.962652541	491688.963475125	491694.962652541	491694.975750542	6				240	936.72	0.3	0.501		3		1	4	0	1				1	95
491683.612652541	491686.612652541	5.35	5.345991833950393	491694.962607333	491688.962652541	491688.958644375	491688.962652541	491688.963475125	491694.962652541	491694.975750542	6				240	1052.59	0.3	0.501		3		1	4	1	1				1	95
491683.612652541	491687.362652541	5.35	5.345991833950393	491694.962607333	491688.962652541	491688.958644375	491688.962652541	491688.963475125	491694.962652541	491694.975750542	6				240	947.41	0.3	0.501		3		1	4	0	1				1	95
491683.612652541	491688.112652541	5.35	5.345991833950393	491694.962607333	491688.962652541	491688.958644375	491688.962652541	491688.963475125	491694.962652541	491694.975750542	6				240	947.11	0.3	0.501		3		1	4	0	1				1	95
491683.612652541	491688.862652541	5.35	5.345991833950393	491694.962607333	491688.962652541	491688.958644375	491688.962652541	491688.963475125	491694.962652541	491694.975750542	6				240	950.99	0.3	0.501		3		1	4	0	1				1	95
491694.981357291	491694.981357291	5.35	5.346178168023471	491706.331310583	491700.33135729097	491700.327535459	491700.33135729097	491700.341693834	491706.33135729097	491706.340677	6				240	940.65	0.3	0.501		3		1	4	0	0				1	96
491694.981357291	491695.731357291	5.35	5.346178168023471	491706.331310583	491700.33135729097	491700.327535459	491700.33135729097	491700.341693834	491706.33135729097	491706.340677	6				240	945.57	0.3	0.501		3		1	4	0	0				1	96
491694.981357291	491696.481357291	5.35	5.346178168023471	491706.331310583	491700.33135729097	491700.327535459	491700.33135729097	491700.341693834	491706.33135729097	491706.340677	6				240	947.55	0.3	0.501		3		1	4	0	0				1	96
491694.981357291	491697.231357291	5.35	5.346178168023471	491706.331310583	491700.33135729097	491700.327535459	491700.33135729097	491700.341693834	491706.33135729097	491706.340677	6				240	954.55	0.3	0.501		3		1	4	0	0				1	96
491694.981357291	491697.981357291	5.35	5.346178168023471	491706.331310583	491700.33135729097	491700.327535459	491700.33135729097	491700.341693834	491706.33135729097	491706.340677	6				240	1052.66	0.3	0.501		3		1	4	1	0				1	96
491694.981357291	491698.731357291	5.35	5.346178168023471	491706.331310583	491700.33135729097	491700.327535459	491700.33135729097	491700.341693834	491706.33135729097	491706.340677	6				240	962.06	0.3	0.501		3		1	4	0	0				1	96
491694.981357291	491699.481357291	5.35	5.346178168023471	491706.331310583	491700.33135729097	491700.327535459	491700.33135729097	491700.341693834	491706.33135729097	491706.340677	6				240	964.49	0.3	0.501		3		1	4	0	0				1	96
491694.981357291	491700.231357291	5.35	5.346178168023471	491706.331310583	491700.33135729097	491700.327535459	491700.33135729097	491700.341693834	491706.33135729097	491706.340677	6				240	962.3	0.3	0.501		3		1	4	0	0				1	96
491706.346310541	491706.346310541	5.35	5.345797459012829	491717.696263958	491711.69631054095	491711.692108	491711.69631054095	491711.696875959	491717.69631054095	491717.70860875	6				240	957.31	0.3	0.501		3		1	5	0	0				1	97
491706.346310541	491707.096310541	5.35	5.345797459012829	491717.696263958	491711.69631054095	491711.692108	491711.69631054095	491711.696875959	491717.69631054095	491717.70860875	6				240	955.99	0.3	0.501		3		1	5	0	0				1	97
491706.346310541	491707.846310541	5.35	5.345797459012829	491717.696263958	491711.69631054095	491711.692108	491711.69631054095	491711.696875959	491717.69631054095	491717.70860875	6				240	961.29	0.3	0.501		3		1	5	0	0				1	97
491706.346310541	491708.596310541	5.35	5.345797459012829	491717.696263958	491711.69631054095	491711.692108	491711.69631054095	491711.696875959	491717.69631054095	491717.70860875	6				240	964.8	0.3	0.501		3		1	5	0	0				1	97
491706.346310541	491709.346310541	5.35	5.345797459012829	491717.696263958	491711.69631054095	491711.692108	491711.69631054095	491711.696875959	491717.69631054095	491717.70860875	6				240	968.02	0.3	0.501		3		1	5	0	0				1	97
491706.346310541	491710.096310541	5.35	5.345797459012829	491717.696263958	491711.69631054095	491711.692108	491711.69631054095	491711.696875959	491717.69631054095	491717.70860875	6				240	1057.61	0.3	0.501		3		1	5	1	0				1	97
491706.346310541	491710.846310541	5.35	5.345797459012829	491717.696263958	491711.69631054095	491711.692108	491711.69631054095	491711.696875959	491717.69631054095	491717.70860875	6				240	965.0	0.3	0.501		3		1	5	0	0				1	97
491706.346310541	491711.596310541	5.35	5.345797459012829	491717.696263958	491711.69631054095	491711.692108	491711.69631054095	491711.696875959	491717.69631054095	491717.70860875	6				240	967.8	0.3	0.501		3		1	5	0	0				1	97
491717.714388875	491717.714388875	5.35	5.3462364170118235	491729.064343291	491723.064388875	491723.060625292	491723.064388875	491723.075125625	491729.064388875	491729.075188625	6				240	974.38	0.3	0.501		4		2	0	0	0				1	98
491717.714388875	491718.464388875	5.35	5.3462364170118235	491729.064343291	491723.064388875	491723.060625292	491723.064388875	491723.075125625	491729.064388875	491729.075188625	6				240	967.89	0.3	0.501		4		2	0	0	0				1	98
491717.714388875	491719.214388875	5.35	5.3462364170118235	491729.064343291	491723.064388875	491723.060625292	491723.064388875	491723.075125625	491729.064388875	491729.075188625	6				240	972.79	0.3	0.501		4		2	0	0	0				1	98
491717.714388875	491719.964388875	5.35	5.3462364170118235	491729.064343291	491723.064388875	491723.060625292	491723.064388875	491723.075125625	491729.064388875	491729.075188625	6				240	976.58	0.3	0.501		4		2	0	0	0				1	98
491717.714388875	491720.714388875	5.35	5.3462364170118235	491729.064343291	491723.064388875	491723.060625292	491723.064388875	491723.075125625	491729.064388875	491729.075188625	6				240	964.05	0.3	0.501		4		2	0	0	0				1	98
491717.714388875	491721.464388875	5.35	5.3462364170118235	491729.064343291	491723.064388875	491723.060625292	491723.064388875	491723.075125625	491729.064388875	491729.075188625	6				240	970.59	0.3	0.501		4		2	0	0	0				1	98
491717.714388875	491722.214388875	5.35	5.3462364170118235	491729.064343291	491723.064388875	491723.060625292	491723.064388875	491723.075125625	491729.064388875	491729.075188625	6				240	958.38	0.3	0.501		4		2	0	0	0				1	98
491717.714388875	491722.964388875	5.35	5.3462364170118235	491729.064343291	491723.064388875	491723.060625292	491723.064388875	491723.075125625	491729.064388875	491729.075188625	6				240	969.42	0.3	0.501		4		2	0	0	0				1	98
491729.08090575	491729.08090575	5.35	5.348739417036995	491740.430859166	491734.43090574996	491734.429645167	491734.43090574996	491734.44202025	491740.43090574996	491740.441390459	6				240	970.14	0.3	0.501		3		0	3	0	0				1	99
491729.08090575	491729.83090575	5.35	5.348739417036995	491740.430859166	491734.43090574996	491734.429645167	491734.43090574996	491734.44202025	491740.43090574996	491740.441390459	6				240	965.02	0.3	0.501		3		0	3	0	0				1	99
491729.08090575	491730.58090575	5.35	5.348739417036995	491740.430859166	491734.43090574996	491734.429645167	491734.43090574996	491734.44202025	491740.43090574996	491740.441390459	6				240	948.46	0.3	0.501		3		0	3	0	0				1	99
491729.08090575	491731.33090575	5.35	5.348739417036995	491740.430859166	491734.43090574996	491734.429645167	491734.43090574996	491734.44202025	491740.43090574996	491740.441390459	6				240	1030.24	0.3	0.501		3		0	3	1	0				1	99
491729.08090575	491732.08090575	5.35	5.348739417036995	491740.430859166	491734.43090574996	491734.429645167	491734.43090574996	491734.44202025	491740.43090574996	491740.441390459	6				240	966.98	0.3	0.501		3		0	3	0	0				1	99
491729.08090575	491732.83090575	5.35	5.348739417036995	491740.430859166	491734.43090574996	491734.429645167	491734.43090574996	491734.44202025	491740.43090574996	491740.441390459	6				240	963.13	0.3	0.501		3		0	3	0	0				1	99
491729.08090575	491733.58090575	5.35	5.348739417036995	491740.430859166	491734.43090574996	491734.429645167	491734.43090574996	491734.44202025	491740.43090574996	491740.441390459	6				240	966.68	0.3	0.501		3		0	3	0	0				1	99
491729.08090575	491734.33090575	5.35	5.348739417036995	491740.430859166	491734.43090574996	491734.429645167	491734.43090574996	491734.44202025	491740.43090574996	491740.441390459	6				240	970.5	0.3	0.501		3		0	3	0	0				1	99
491740.44710912503	491740.44710912503	5.35	5.348995041975286	491751.797063458	491745.797109125	491745.796104167	491745.797109125	491745.808403792	491751.797109125	491751.80655275	6				240	964.57	0.3	0.501		3		0	4	0	0				1	100
491740.44710912503	491741.19710912503	5.35	5.348995041975286	491751.797063458	491745.797109125	491745.796104167	491745.797109125	491745.808403792	491751.797109125	491751.80655275	6				240	961.72	0.3	0.501		3		0	4	0	0				1	100
491740.44710912503	491741.94710912503	5.35	5.348995041975286	491751.797063458	491745.797109125	491745.796104167	491745.797109125	491745.808403792	491751.797109125	491751.80655275	6				240	963.99	0.3	0.501		3		0	4	0	0				1	100
491740.44710912503	491742.69710912503	5.35	5.348995041975286	491751.797063458	491745.797109125	491745.796104167	491745.797109125	491745.808403792	491751.797109125	491751.80655275	6				240	968.28	0.3	0.501		3		0	4	0	0				1	100
491740.44710912503	491743.44710912503	5.35	5.348995041975286	491751.797063458	491745.797109125	491745.796104167	491745.797109125	491745.808403792	491751.797109125	491751.80655275	6				240	1053.17	0.3	0.501		3		0	4	1	0				1	100
491740.44710912503	491744.19710912503	5.35	5.348995041975286	491751.797063458	491745.797109125	491745.796104167	491745.797109125	491745.808403792	491751.797109125	491751.80655275	6				240	971.14	0.3	0.501		3		0	4	0	0				1	100
491740.44710912503	491744.94710912503	5.35	5.348995041975286	491751.797063458	491745.797109125	491745.796104167	491745.797109125	491745.808403792	491751.797109125	491751.80655275	6				240	970.09	0.3	0.501		3		0	4	0	0				1	100
491740.44710912503	491745.69710912503	5.35	5.348995041975286	491751.797063458	491745.797109125	491745.796104167	491745.797109125	491745.808403792	491751.797109125	491751.80655275	6				240	962.67	0.3	0.501		3		0	4	0	0				1	100
491751.812063375	491751.812063375	5.35	5.349510583968367	491763.162017583	491757.162063375	491757.161573959	491757.162063375	491757.175168667	491763.162063375	491763.17546375	6				240	968.01	0.3	0.501		3		0	3	0	0				1	101
491751.812063375	491752.562063375	5.35	5.349510583968367	491763.162017583	491757.162063375	491757.161573959	491757.162063375	491757.175168667	491763.162063375	491763.17546375	6				240	970.78	0.3	0.501		3		0	3	0	0				1	101
491751.812063375	491753.312063375	5.35	5.349510583968367	491763.162017583	491757.162063375	491757.161573959	491757.162063375	491757.175168667	491763.162063375	491763.17546375	6				240	980.42	0.3	0.501		3		0	3	0	0				1	101
491751.812063375	491754.062063375	5.35	5.349510583968367	491763.162017583	491757.162063375	491757.161573959	491757.162063375	491757.175168667	491763.162063375	491763.17546375	6				240	1027.25	0.3	0.501		3		0	3	1	0				1	101
491751.812063375	491754.812063375	5.35	5.349510583968367	491763.162017583	491757.162063375	491757.161573959	491757.162063375	491757.175168667	491763.162063375	491763.17546375	6				240	980.45	0.3	0.501		3		0	3	0	0				1	101
491751.812063375	491755.562063375	5.35	5.349510583968367	491763.162017583	491757.162063375	491757.161573959	491757.162063375	491757.175168667	491763.162063375	491763.17546375	6				240	980.18	0.3	0.501		3		0	3	0	0				1	101
491751.812063375	491756.312063375	5.35	5.349510583968367	491763.162017583	491757.162063375	491757.161573959	491757.162063375	491757.175168667	491763.162063375	491763.17546375	6				240	965.16	0.3	0.501		3		0	3	0	0				1	101
491751.812063375	491757.062063375	5.35	5.349510583968367	491763.162017583	491757.162063375	491757.161573959	491757.162063375	491757.175168667	491763.162063375	491763.17546375	6				240	978.06	0.3	0.501		3		0	3	0	0				1	101
491763.18108	491763.18108	5.35	5.34817704197485	491774.531034333	491768.53108	491768.529257042	491768.53108	491768.539739834	491774.53108	491774.542026292	6				240	968.86	0.3	0.501		3		0	4	0	0				1	102
491763.18108	491763.93108	5.35	5.34817704197485	491774.531034333	491768.53108	491768.529257042	491768.53108	491768.539739834	491774.53108	491774.542026292	6				240	982.16	0.3	0.501		3		0	4	0	0				1	102
491763.18108	491764.68108	5.35	5.34817704197485	491774.531034333	491768.53108	491768.529257042	491768.53108	491768.539739834	491774.53108	491774.542026292	6				240	983.51	0.3	0.501		3		0	4	0	0				1	102
491763.18108	491765.43108	5.35	5.34817704197485	491774.531034333	491768.53108	491768.529257042	491768.53108	491768.539739834	491774.53108	491774.542026292	6				240	974.03	0.3	0.501		3		0	4	0	0				1	102
491763.18108	491766.18108	5.35	5.34817704197485	491774.531034333	491768.53108	491768.529257042	491768.53108	491768.539739834	491774.53108	491774.542026292	6				240	1039.15	0.3	0.501		3		0	4	1	0				1	102
491763.18108	491766.93108	5.35	5.34817704197485	491774.531034333	491768.53108	491768.529257042	491768.53108	491768.539739834	491774.53108	491774.542026292	6				240	982.27	0.3	0.501		3		0	4	0	0				1	102
491763.18108	491767.68108	5.35	5.34817704197485	491774.531034333	491768.53108	491768.529257042	491768.53108	491768.539739834	491774.53108	491774.542026292	6				240	990.79	0.3	0.501		3		0	4	0	0				1	102
491763.18108	491768.43108	5.35	5.34817704197485	491774.531034333	491768.53108	491768.529257042	491768.53108	491768.539739834	491774.53108	491774.542026292	6				240	986.66	0.3	0.501		3		0	4	0	0				1	102
491774.54790925	491774.54790925	5.35	5.348661625001114	491785.897863166	491779.89790925	491779.896570875	491779.89790925	491779.908591625	491785.89790925	491785.90824025	6				240	995.63	0.3	0.501		3		0	2	0	0				1	103
491774.54790925	491775.29790925	5.35	5.348661625001114	491785.897863166	491779.89790925	491779.896570875	491779.89790925	491779.908591625	491785.89790925	491785.90824025	6				240	986.75	0.3	0.501		3		0	2	0	0				1	103
491774.54790925	491776.04790925	5.35	5.348661625001114	491785.897863166	491779.89790925	491779.896570875	491779.89790925	491779.908591625	491785.89790925	491785.90824025	6				240	1035.7	0.3	0.501		3		0	2	1	0				1	103
491774.54790925	491776.79790925	5.35	5.348661625001114	491785.897863166	491779.89790925	491779.896570875	491779.89790925	491779.908591625	491785.89790925	491785.90824025	6				240	981.2	0.3	0.501		3		0	2	0	0				1	103
491774.54790925	491777.54790925	5.35	5.348661625001114	491785.897863166	491779.89790925	491779.896570875	491779.89790925	491779.908591625	491785.89790925	491785.90824025	6				240	982.76	0.3	0.501		3		0	2	0	0				1	103
491774.54790925	491778.29790925	5.35	5.348661625001114	491785.897863166	491779.89790925	491779.896570875	491779.89790925	491779.908591625	491785.89790925	491785.90824025	6				240	973.91	0.3	0.501		3		0	2	0	0				1	103
491774.54790925	491779.04790925	5.35	5.348661625001114	491785.897863166	491779.89790925	491779.896570875	491779.89790925	491779.908591625	491785.89790925	491785.90824025	6				240	978.89	0.3	0.501		3		0	2	0	0				1	103
491774.54790925	491779.79790925	5.35	5.348661625001114	491785.897863166	491779.89790925	491779.896570875	491779.89790925	491779.908591625	491785.89790925	491785.90824025	6				240	978.31	0.3	0.501		3		0	2	0	0				1	103
491785.913800583	491785.913800583	5.35	5.3464542090077884	491797.263754791	491791.26380058296	491791.260254792	491791.26380058296	491791.275147167	491797.26380058296	491797.275170917	6				240	977.25	0.3	0.501		4		2	0	0	0				1	104
491785.913800583	491786.663800583	5.35	5.3464542090077884	491797.263754791	491791.26380058296	491791.260254792	491791.26380058296	491791.275147167	491797.26380058296	491797.275170917	6				240	984.17	0.3	0.501		4		2	0	0	0				1	104
491785.913800583	491787.413800583	5.35	5.3464542090077884	491797.263754791	491791.26380058296	491791.260254792	491791.26380058296	491791.275147167	491797.26380058296	491797.275170917	6				240	973.44	0.3	0.501		4		2	0	0	0				1	104
491785.913800583	491788.163800583	5.35	5.3464542090077884	491797.263754791	491791.26380058296	491791.260254792	491791.26380058296	491791.275147167	491797.26380058296	491797.275170917	6				240	974.8	0.3	0.501		4		2	0	0	0				1	104
491785.913800583	491788.913800583	5.35	5.3464542090077884	491797.263754791	491791.26380058296	491791.260254792	491791.26380058296	491791.275147167	491797.26380058296	491797.275170917	6				240	974.19	0.3	0.501		4		2	0	0	0				1	104
491785.913800583	491789.663800583	5.35	5.3464542090077884	491797.263754791	491791.26380058296	491791.260254792	491791.26380058296	491791.275147167	491797.26380058296	491797.275170917	6				240	966.74	0.3	0.501		4		2	0	0	0				1	104
491785.913800583	491790.413800583	5.35	5.3464542090077884	491797.263754791	491791.26380058296	491791.260254792	491791.26380058296	491791.275147167	491797.26380058296	491797.275170917	6				240	975.23	0.3	0.501		4		2	0	0	0				1	104
491785.913800583	491791.163800583	5.35	5.3464542090077884	491797.263754791	491791.26380058296	491791.260254792	491791.26380058296	491791.275147167	491797.26380058296	491797.275170917	6				240	966.14	0.3	0.501		4		2	0	0	0				1	104
491797.280942208	491797.280942208	5.35	5.348837416968308	491808.63089708297	491802.630942208	491802.629779625	491802.630942208	491802.642006584	491808.630942208	491808.6418735	6				240	976.45	0.3	0.501		3		1	5	0	0				1	105
491797.280942208	491798.030942208	5.35	5.348837416968308	491808.63089708297	491802.630942208	491802.629779625	491802.630942208	491802.642006584	491808.630942208	491808.6418735	6				240	960.04	0.3	0.501		3		1	5	0	0				1	105
491797.280942208	491798.780942208	5.35	5.348837416968308	491808.63089708297	491802.630942208	491802.629779625	491802.630942208	491802.642006584	491808.630942208	491808.6418735	6				240	969.69	0.3	0.501		3		1	5	0	0				1	105
491797.280942208	491799.530942208	5.35	5.348837416968308	491808.63089708297	491802.630942208	491802.629779625	491802.630942208	491802.642006584	491808.630942208	491808.6418735	6				240	970.08	0.3	0.501		3		1	5	0	0				1	105
491797.280942208	491800.280942208	5.35	5.348837416968308	491808.63089708297	491802.630942208	491802.629779625	491802.630942208	491802.642006584	491808.630942208	491808.6418735	6				240	970.54	0.3	0.501		3		1	5	0	0				1	105
491797.280942208	491801.030942208	5.35	5.348837416968308	491808.63089708297	491802.630942208	491802.629779625	491802.630942208	491802.642006584	491808.630942208	491808.6418735	6				240	1049.53	0.3	0.501		3		1	5	1	0				1	105
491797.280942208	491801.780942208	5.35	5.348837416968308	491808.63089708297	491802.630942208	491802.629779625	491802.630942208	491802.642006584	491808.630942208	491808.6418735	6				240	959.91	0.3	0.501		3		1	5	0	0				1	105
491797.280942208	491802.530942208	5.35	5.348837416968308	491808.63089708297	491802.630942208	491802.629779625	491802.630942208	491802.642006584	491808.630942208	491808.6418735	6				240	961.2	0.3	0.501		3		1	5	0	0				1	105
491808.6474595	491808.6474595	5.35	5.347602750000078	491819.997413125	491813.9974595	491813.99506225	491813.9974595	491814.007252	491819.9974595	491820.009635584	6				240	954.82	0.3	0.501		3		1	4	0	0				1	106
491808.6474595	491809.3974595	5.35	5.347602750000078	491819.997413125	491813.9974595	491813.99506225	491813.9974595	491814.007252	491819.9974595	491820.009635584	6				240	965.11	0.3	0.501		3		1	4	0	0				1	106
491808.6474595	491810.1474595	5.35	5.347602750000078	491819.997413125	491813.9974595	491813.99506225	491813.9974595	491814.007252	491819.9974595	491820.009635584	6				240	964.24	0.3	0.501		3		1	4	0	0				1	106
491808.6474595	491810.8974595	5.35	5.347602750000078	491819.997413125	491813.9974595	491813.99506225	491813.9974595	491814.007252	491819.9974595	491820.009635584	6				240	958.13	0.3	0.501		3		1	4	0	0				1	106
491808.6474595	491811.6474595	5.35	5.347602750000078	491819.997413125	491813.9974595	491813.99506225	491813.9974595	491814.007252	491819.9974595	491820.009635584	6				240	1018.85	0.3	0.501		3		1	4	1	0				1	106
491808.6474595	491812.3974595	5.35	5.347602750000078	491819.997413125	491813.9974595	491813.99506225	491813.9974595	491814.007252	491819.9974595	491820.009635584	6				240	961.63	0.3	0.501		3		1	4	0	0				1	106
491808.6474595	491813.1474595	5.35	5.347602750000078	491819.997413125	491813.9974595	491813.99506225	491813.9974595	491814.007252	491819.9974595	491820.009635584	6				240	966.94	0.3	0.501		3		1	4	0	0				1	106
491808.6474595	491813.8974595	5.35	5.347602750000078	491819.997413125	491813.9974595	491813.99506225	491813.9974595	491814.007252	491819.9974595	491820.009635584	6				240	968.36	0.3	0.501		3		1	4	0	0				1	106
491824.013646833	491824.013646833	5.35	5.344837001000997	491835.3636025	491829.363646833	491829.358483834	491829.363646833	491829.364100417	491835.363646833	491835.374156625	6				240	978.94	0.3	0.501		3		1	6	0	1				1	107
491824.013646833	491824.763646833	5.35	5.344837001000997	491835.3636025	491829.363646833	491829.358483834	491829.363646833	491829.364100417	491835.363646833	491835.374156625	6				240	973.6	0.3	0.501		3		1	6	0	1				1	107
491824.013646833	491825.513646833	5.35	5.344837001000997	491835.3636025	491829.363646833	491829.358483834	491829.363646833	491829.364100417	491835.363646833	491835.374156625	6				240	965.6	0.3	0.501		3		1	6	0	1				1	107
491824.013646833	491826.263646833	5.35	5.344837001000997	491835.3636025	491829.363646833	491829.358483834	491829.363646833	491829.364100417	491835.363646833	491835.374156625	6				240	962.54	0.3	0.501		3		1	6	0	1				1	107
491824.013646833	491827.013646833	5.35	5.344837001000997	491835.3636025	491829.363646833	491829.358483834	491829.363646833	491829.364100417	491835.363646833	491835.374156625	6				240	965.96	0.3	0.501		3		1	6	0	1				1	107
491824.013646833	491827.763646833	5.35	5.344837001000997	491835.3636025	491829.363646833	491829.358483834	491829.363646833	491829.364100417	491835.363646833	491835.374156625	6				240	958.21	0.3	0.501		3		1	6	0	1				1	107
491824.013646833	491828.513646833	5.35	5.344837001000997	491835.3636025	491829.363646833	491829.358483834	491829.363646833	491829.364100417	491835.363646833	491835.374156625	6				240	1026.75	0.3	0.501		3		1	6	1	1				1	107
491824.013646833	491829.263646833	5.35	5.344837001000997	491835.3636025	491829.363646833	491829.358483834	491829.363646833	491829.364100417	491835.363646833	491835.374156625	6				240	962.67	0.3	0.501		3		1	6	0	1				1	107
491835.379539916	491835.379539916	5.35	5.349951292970218	491846.729495583	491840.729539916	491840.729491209	491840.729539916	491840.741544834	491846.729539916	491846.739279042	6				240	959.39	0.3	0.501		3		1	4	0	0				1	108
491835.379539916	491836.129539916	5.35	5.349951292970218	491846.729495583	491840.729539916	491840.729491209	491840.729539916	491840.741544834	491846.729539916	491846.739279042	6				240	962.02	0.3	0.501		3		1	4	0	0				1	108
491835.379539916	491836.879539916	5.35	5.349951292970218	491846.729495583	491840.729539916	491840.729491209	491840.729539916	491840.741544834	491846.729539916	491846.739279042	6				240	964.66	0.3	0.501		3		1	4	0	0				1	108
491835.379539916	491837.629539916	5.35	5.349951292970218	491846.729495583	491840.729539916	491840.729491209	491840.729539916	491840.741544834	491846.729539916	491846.739279042	6				240	963.1	0.3	0.501		3		1	4	0	0				1	108
491835.379539916	491838.379539916	5.35	5.349951292970218	491846.729495583	491840.729539916	491840.729491209	491840.729539916	491840.741544834	491846.729539916	491846.739279042	6				240	1007.8	0.3	0.501		3		1	4	1	0				1	108
491835.379539916	491839.129539916	5.35	5.349951292970218	491846.729495583	491840.729539916	491840.729491209	491840.729539916	491840.741544834	491846.729539916	491846.739279042	6				240	948.61	0.3	0.501		3		1	4	0	0				1	108
491835.379539916	491839.879539916	5.35	5.349951292970218	491846.729495583	491840.729539916	491840.729491209	491840.729539916	491840.741544834	491846.729539916	491846.739279042	6				240	953.91	0.3	0.501		3		1	4	0	0				1	108
491835.379539916	491840.629539916	5.35	5.349951292970218	491846.729495583	491840.729539916	491840.729491209	491840.729539916	491840.741544834	491846.729539916	491846.739279042	6				240	959.18	0.3	0.501		3		1	4	0	0				1	108
491846.745120541	491846.745120541	5.35	5.345829917991068	491858.09507599997	491852.095120541	491852.090950459	491852.095120541	491852.095493459	491858.095120541	491858.096113667	6				240	954.9	0.3	0.501		3		1	5	0	0				1	109
491846.745120541	491847.495120541	5.35	5.345829917991068	491858.09507599997	491852.095120541	491852.090950459	491852.095120541	491852.095493459	491858.095120541	491858.096113667	6				240	961.7	0.3	0.501		3		1	5	0	0				1	109
491846.745120541	491848.245120541	5.35	5.345829917991068	491858.09507599997	491852.095120541	491852.090950459	491852.095120541	491852.095493459	491858.095120541	491858.096113667	6				240	961.81	0.3	0.501		3		1	5	0	0				1	109
491846.745120541	491848.995120541	5.35	5.345829917991068	491858.09507599997	491852.095120541	491852.090950459	491852.095120541	491852.095493459	491858.095120541	491858.096113667	6				240	967.43	0.3	0.501		3		1	5	0	0				1	109
491846.745120541	491849.745120541	5.35	5.345829917991068	491858.09507599997	491852.095120541	491852.090950459	491852.095120541	491852.095493459	491858.095120541	491858.096113667	6				240	955.93	0.3	0.501		3		1	5	0	0				1	109
491846.745120541	491850.495120541	5.35	5.345829917991068	491858.09507599997	491852.095120541	491852.090950459	491852.095120541	491852.095493459	491858.095120541	491858.096113667	6				240	1038.18	0.3	0.501		3		1	5	1	0				1	109
491846.745120541	491851.245120541	5.35	5.345829917991068	491858.09507599997	491852.095120541	491852.090950459	491852.095120541	491852.095493459	491858.095120541	491858.096113667	6				240	965.08	0.3	0.501		3		1	5	0	0				1	109
491846.745120541	491851.995120541	5.35	5.345829917991068	491858.09507599997	491852.095120541	491852.090950459	491852.095120541	491852.095493459	491858.095120541	491858.096113667	6				240	963.54	0.3	0.501		3		1	5	0	0				1	109
491858.101638458	491858.101638458	5.35	5.341460791998543	491869.451594125	491863.451638458	491863.44309925	491863.451638458	491863.456028875	491869.451638458	491869.458193542	6				240	961.03	0.3	0.501		3		1	5	0	0				1	110
491858.101638458	491858.851638458	5.35	5.341460791998543	491869.451594125	491863.451638458	491863.44309925	491863.451638458	491863.456028875	491869.451638458	491869.458193542	6				240	957.02	0.3	0.501		3		1	5	0	0				1	110
491858.101638458	491859.601638458	5.35	5.341460791998543	491869.451594125	491863.451638458	491863.44309925	491863.451638458	491863.456028875	491869.451638458	491869.458193542	6				240	951.89	0.3	0.501		3		1	5	0	0				1	110
491858.101638458	491860.351638458	5.35	5.341460791998543	491869.451594125	491863.451638458	491863.44309925	491863.451638458	491863.456028875	491869.451638458	491869.458193542	6				240	950.91	0.3	0.501		3		1	5	0	0				1	110
491858.101638458	491861.101638458	5.35	5.341460791998543	491869.451594125	491863.451638458	491863.44309925	491863.451638458	491863.456028875	491869.451638458	491869.458193542	6				240	955.13	0.3	0.501		3		1	5	0	0				1	110
491858.101638458	491861.851638458	5.35	5.341460791998543	491869.451594125	491863.451638458	491863.44309925	491863.451638458	491863.456028875	491869.451638458	491869.458193542	6				240	1006.93	0.3	0.501		3		1	5	1	0				1	110
491858.101638458	491862.601638458	5.35	5.341460791998543	491869.451594125	491863.451638458	491863.44309925	491863.451638458	491863.456028875	491869.451638458	491869.458193542	6				240	943.11	0.3	0.501		3		1	5	0	0				1	110
491858.101638458	491863.351638458	5.35	5.341460791998543	491869.451594125	491863.451638458	491863.44309925	491863.451638458	491863.456028875	491869.451638458	491869.458193542	6				240	947.31	0.3	0.501		3		1	5	0	0				1	110
491869.463781583	491869.463781583	5.35	5.348808126000222	491880.813735708	491874.813781583	491874.812589709	491874.813781583	491874.824931417	491880.813781583	491880.82283225	6				240	943.46	0.3	0.501		4		2	0	0	0				1	111
491869.463781583	491870.213781583	5.35	5.348808126000222	491880.813735708	491874.813781583	491874.812589709	491874.813781583	491874.824931417	491880.813781583	491880.82283225	6				240	938.85	0.3	0.501		4		2	0	0	0				1	111
491869.463781583	491870.963781583	5.35	5.348808126000222	491880.813735708	491874.813781583	491874.812589709	491874.813781583	491874.824931417	491880.813781583	491880.82283225	6				240	950.69	0.3	0.501		4		2	0	0	0				1	111
491869.463781583	491871.713781583	5.35	5.348808126000222	491880.813735708	491874.813781583	491874.812589709	491874.813781583	491874.824931417	491880.813781583	491880.82283225	6				240	941.92	0.3	0.501		4		2	0	0	0				1	111
491869.463781583	491872.463781583	5.35	5.348808126000222	491880.813735708	491874.813781583	491874.812589709	491874.813781583	491874.824931417	491880.813781583	491880.82283225	6				240	943.21	0.3	0.501		4		2	0	0	0				1	111
491869.463781583	491873.213781583	5.35	5.348808126000222	491880.813735708	491874.813781583	491874.812589709	491874.813781583	491874.824931417	491880.813781583	491880.82283225	6				240	942.23	0.3	0.501		4		2	0	0	0				1	111
491869.463781583	491873.963781583	5.35	5.348808126000222	491880.813735708	491874.813781583	491874.812589709	491874.813781583	491874.824931417	491880.813781583	491880.82283225	6				240	949.23	0.3	0.501		4		2	0	0	0				1	111
491869.463781583	491874.713781583	5.35	5.348808126000222	491880.813735708	491874.813781583	491874.812589709	491874.813781583	491874.824931417	491880.813781583	491880.82283225	6				240	943.74	0.3	0.501		4		2	0	0	0				1	111
491880.828735666	491880.828735666	5.35	5.349056667997502	491892.178688833	491886.178735666	491886.177792334	491886.178735666	491886.1893015	491892.178735666	491892.179375334	6				240	944.61	0.3	0.501		3		0	2	0	0				1	112
491880.828735666	491881.578735666	5.35	5.349056667997502	491892.178688833	491886.178735666	491886.177792334	491886.178735666	491886.1893015	491892.178735666	491892.179375334	6				240	945.48	0.3	0.501		3		0	2	0	0				1	112
491880.828735666	491882.328735666	5.35	5.349056667997502	491892.178688833	491886.178735666	491886.177792334	491886.178735666	491886.1893015	491892.178735666	491892.179375334	6				240	1053.01	0.3	0.501		3		0	2	1	0				1	112
491880.828735666	491883.078735666	5.35	5.349056667997502	491892.178688833	491886.178735666	491886.177792334	491886.178735666	491886.1893015	491892.178735666	491892.179375334	6				240	937.08	0.3	0.501		3		0	2	0	0				1	112
491880.828735666	491883.828735666	5.35	5.349056667997502	491892.178688833	491886.178735666	491886.177792334	491886.178735666	491886.1893015	491892.178735666	491892.179375334	6				240	938.11	0.3	0.501		3		0	2	0	0				1	112
491880.828735666	491884.578735666	5.35	5.349056667997502	491892.178688833	491886.178735666	491886.177792334	491886.178735666	491886.1893015	491892.178735666	491892.179375334	6				240	929.11	0.3	0.501		3		0	2	0	0				1	112
491880.828735666	491885.328735666	5.35	5.349056667997502	491892.178688833	491886.178735666	491886.177792334	491886.178735666	491886.1893015	491892.178735666	491892.179375334	6				240	933.78	0.3	0.501		3		0	2	0	0				1	112
491880.828735666	491886.078735666	5.35	5.349056667997502	491892.178688833	491886.178735666	491886.177792334	491886.178735666	491886.1893015	491892.178735666	491892.179375334	6				240	933.1	0.3	0.501		3		0	2	0	0				1	112
491896.18336033303	491896.18336033303	5.35	5.343018833955284	491907.533316375	491901.533360333	491901.526379167	491901.533360333	491901.539524292	491907.533360333	491907.541499834	6				240	936.04	0.3	0.501		3		0	2	0	1				1	113
