onset	onset_tone	duration	duration_getsecs	offset_trial	offset_sound	offset_sound_getsecs	onset_iti	onset_iti_getsecs	offset_iti	offset_iti_getsecs	ITI	rt_getsecs_trial	rt_getsecs_dev	rt_slider_getsecs	tau_std	frequency	lim_std	lim_dev	key_pressed	correct	confidence	rule	dpos	trial_type	runs	trial_no
19945.544830499337	19945.544830499337	5.35	5.349855709664553	19956.897688083336	19950.894830499336	19950.894686209	19950.894830499336	19950.900240084	19956.894830499336	19956.899763334	6	3.5334745006621233	2.0334745006621233	0.33422429200072656	40	606.02	-0.6	-0.4999	u	1	5	0	4	0	0	0
19945.544830499337	19946.294830499337	5.35	5.349855709664553	19956.897688083336	19950.894830499336	19950.894686209	19950.894830499336	19950.900240084	19956.894830499336	19956.899763334	6	3.5334745006621233	2.0334745006621233	0.33422429200072656	40	606.4	-0.6	-0.4999	u	1	5	0	4	0	0	0
19945.544830499337	19947.044830499337	5.35	5.349855709664553	19956.897688083336	19950.894830499336	19950.894686209	19950.894830499336	19950.900240084	19956.894830499336	19956.899763334	6	3.5334745006621233	2.0334745006621233	0.33422429200072656	40	608.57	-0.6	-0.4999	u	1	5	0	4	0	0	0
19945.544830499337	19947.794830499337	5.35	5.349855709664553	19956.897688083336	19950.894830499336	19950.894686209	19950.894830499336	19950.900240084	19956.894830499336	19956.899763334	6	3.5334745006621233	2.0334745006621233	0.33422429200072656	40	608.93	-0.6	-0.4999	u	1	5	0	4	0	0	0
19945.544830499337	19948.544830499337	5.35	5.349855709664553	19956.897688083336	19950.894830499336	19950.894686209	19950.894830499336	19950.900240084	19956.894830499336	19956.899763334	6	3.5334745006621233	2.0334745006621233	0.33422429200072656	40	657.87	-0.6	-0.4999	u	1	5	0	4	1	0	0
19945.544830499337	19949.294830499337	5.35	5.349855709664553	19956.897688083336	19950.894830499336	19950.894686209	19950.894830499336	19950.900240084	19956.894830499336	19956.899763334	6	3.5334745006621233	2.0334745006621233	0.33422429200072656	40	612.7	-0.6	-0.4999	u	1	5	0	4	0	0	0
19945.544830499337	19950.044830499337	5.35	5.349855709664553	19956.897688083336	19950.894830499336	19950.894686209	19950.894830499336	19950.900240084	19956.894830499336	19956.899763334	6	3.5334745006621233	2.0334745006621233	0.33422429200072656	40	607.29	-0.6	-0.4999	u	1	5	0	4	0	0	0
19945.544830499337	19950.794830499337	5.35	5.349855709664553	19956.897688083336	19950.894830499336	19950.894686209	19950.894830499336	19950.900240084	19956.894830499336	19956.899763334	6	3.5334745006621233	2.0334745006621233	0.33422429200072656	40	604.1	-0.6	-0.4999	u	1	5	0	4	0	0	0
19956.906437999336	19956.906437999336	5.35	5.343813542662247	19968.256359458337	19962.256437999335	19962.250251542	19962.256437999335	19962.261215084	19968.256437999335	19968.261206667	6	2.8717553346650675	2.1217553346650675	0.798887625001953	40	604.56	-0.6	-0.4999	y	1	5	0	3	0	0	1
19956.906437999336	19957.656437999336	5.35	5.343813542662247	19968.256359458337	19962.256437999335	19962.250251542	19962.256437999335	19962.261215084	19968.256437999335	19968.261206667	6	2.8717553346650675	2.1217553346650675	0.798887625001953	40	609.18	-0.6	-0.4999	y	1	5	0	3	0	0	1
19956.906437999336	19958.406437999336	5.35	5.343813542662247	19968.256359458337	19962.256437999335	19962.250251542	19962.256437999335	19962.261215084	19968.256437999335	19968.261206667	6	2.8717553346650675	2.1217553346650675	0.798887625001953	40	609.52	-0.6	-0.4999	y	1	5	0	3	0	0	1
19956.906437999336	19959.156437999336	5.35	5.343813542662247	19968.256359458337	19962.256437999335	19962.250251542	19962.256437999335	19962.261215084	19968.256437999335	19968.261206667	6	2.8717553346650675	2.1217553346650675	0.798887625001953	40	662.71	-0.6	-0.4999	y	1	5	0	3	1	0	1
19956.906437999336	19959.906437999336	5.35	5.343813542662247	19968.256359458337	19962.256437999335	19962.250251542	19962.256437999335	19962.261215084	19968.256437999335	19968.261206667	6	2.8717553346650675	2.1217553346650675	0.798887625001953	40	614.99	-0.6	-0.4999	y	1	5	0	3	0	0	1
19956.906437999336	19960.656437999336	5.35	5.343813542662247	19968.256359458337	19962.256437999335	19962.250251542	19962.256437999335	19962.261215084	19968.256437999335	19968.261206667	6	2.8717553346650675	2.1217553346650675	0.798887625001953	40	616.71	-0.6	-0.4999	y	1	5	0	3	0	0	1
19956.906437999336	19961.406437999336	5.35	5.343813542662247	19968.256359458337	19962.256437999335	19962.250251542	19962.256437999335	19962.261215084	19968.256437999335	19968.261206667	6	2.8717553346650675	2.1217553346650675	0.798887625001953	40	614.72	-0.6	-0.4999	y	1	5	0	3	0	0	1
19956.906437999336	19962.156437999336	5.35	5.343813542662247	19968.256359458337	19962.256437999335	19962.250251542	19962.256437999335	19962.261215084	19968.256437999335	19968.261206667	6	2.8717553346650675	2.1217553346650675	0.798887625001953	40	609.72	-0.6	-0.4999	y	1	5	0	3	0	0	1
19968.268546874337	19968.268546874337	5.35	5.347787417664222	19979.618470041336	19973.618546874335	19973.616334292	19973.618546874335	19973.627660084	19979.618546874335	19979.6267475	6			1.6257631249973201	40	609.48	-0.6	-0.4999		4	5	2	0	0	0	2
19968.268546874337	19969.018546874337	5.35	5.347787417664222	19979.618470041336	19973.618546874335	19973.616334292	19973.618546874335	19973.627660084	19979.618546874335	19979.6267475	6			1.6257631249973201	40	605.01	-0.6	-0.4999		4	5	2	0	0	0	2
19968.268546874337	19969.768546874337	5.35	5.347787417664222	19979.618470041336	19973.618546874335	19973.616334292	19973.618546874335	19973.627660084	19979.618546874335	19979.6267475	6			1.6257631249973201	40	606.99	-0.6	-0.4999		4	5	2	0	0	0	2
19968.268546874337	19970.518546874337	5.35	5.347787417664222	19979.618470041336	19973.618546874335	19973.616334292	19973.618546874335	19973.627660084	19979.618546874335	19979.6267475	6			1.6257631249973201	40	605.91	-0.6	-0.4999		4	5	2	0	0	0	2
19968.268546874337	19971.268546874337	5.35	5.347787417664222	19979.618470041336	19973.618546874335	19973.616334292	19973.618546874335	19973.627660084	19979.618546874335	19979.6267475	6			1.6257631249973201	40	611.12	-0.6	-0.4999		4	5	2	0	0	0	2
19968.268546874337	19972.018546874337	5.35	5.347787417664222	19979.618470041336	19973.618546874335	19973.616334292	19973.618546874335	19973.627660084	19979.618546874335	19979.6267475	6			1.6257631249973201	40	609.36	-0.6	-0.4999		4	5	2	0	0	0	2
19968.268546874337	19972.768546874337	5.35	5.347787417664222	19979.618470041336	19973.618546874335	19973.616334292	19973.618546874335	19973.627660084	19979.618546874335	19979.6267475	6			1.6257631249973201	40	610.72	-0.6	-0.4999		4	5	2	0	0	0	2
19968.268546874337	19973.518546874337	5.35	5.347787417664222	19979.618470041336	19973.618546874335	19973.616334292	19973.618546874335	19973.627660084	19979.618546874335	19979.6267475	6			1.6257631249973201	40	614.02	-0.6	-0.4999		4	5	2	0	0	0	2
19979.633469958335	19979.633469958335	5.35	5.344240333666676	19990.983393916336	19984.983469958333	19984.977710292	19984.983469958333	19984.983647875	19990.983469958333	19990.994350125	6	4.346705125666631	2.846705125666631	0.8632266670028912	40	611.92	-0.6	-0.4999	u	1	5	1	4	0	0	3
19979.633469958335	19980.383469958335	5.35	5.344240333666676	19990.983393916336	19984.983469958333	19984.977710292	19984.983469958333	19984.983647875	19990.983469958333	19990.994350125	6	4.346705125666631	2.846705125666631	0.8632266670028912	40	613.65	-0.6	-0.4999	u	1	5	1	4	0	0	3
19979.633469958335	19981.133469958335	5.35	5.344240333666676	19990.983393916336	19984.983469958333	19984.977710292	19984.983469958333	19984.983647875	19990.983469958333	19990.994350125	6	4.346705125666631	2.846705125666631	0.8632266670028912	40	613.56	-0.6	-0.4999	u	1	5	1	4	0	0	3
19979.633469958335	19981.883469958335	5.35	5.344240333666676	19990.983393916336	19984.983469958333	19984.977710292	19984.983469958333	19984.983647875	19990.983469958333	19990.994350125	6	4.346705125666631	2.846705125666631	0.8632266670028912	40	612.8	-0.6	-0.4999	u	1	5	1	4	0	0	3
19979.633469958335	19982.633469958335	5.35	5.344240333666676	19990.983393916336	19984.983469958333	19984.977710292	19984.983469958333	19984.983647875	19990.983469958333	19990.994350125	6	4.346705125666631	2.846705125666631	0.8632266670028912	40	650.98	-0.6	-0.4999	u	1	5	1	4	1	0	3
19979.633469958335	19983.383469958335	5.35	5.344240333666676	19990.983393916336	19984.983469958333	19984.977710292	19984.983469958333	19984.983647875	19990.983469958333	19990.994350125	6	4.346705125666631	2.846705125666631	0.8632266670028912	40	612.67	-0.6	-0.4999	u	1	5	1	4	0	0	3
19979.633469958335	19984.133469958335	5.35	5.344240333666676	19990.983393916336	19984.983469958333	19984.977710292	19984.983469958333	19984.983647875	19990.983469958333	19990.994350125	6	4.346705125666631	2.846705125666631	0.8632266670028912	40	609.33	-0.6	-0.4999	u	1	5	1	4	0	0	3
19979.633469958335	19984.883469958335	5.35	5.344240333666676	19990.983393916336	19984.983469958333	19984.977710292	19984.983469958333	19984.983647875	19990.983469958333	19990.994350125	6	4.346705125666631	2.846705125666631	0.8632266670028912	40	605.57	-0.6	-0.4999	u	1	5	1	4	0	0	3
19990.999956291336	19990.999956291336	5.35	5.3477996256624465	20002.349880708338	19996.349956291335	19996.347755917	19996.349956291335	19996.360749625	20002.349956291335	20002.360293209	6	4.929395125662268	1.9293951256622677	0.25975299999845447	40	605.46	-0.6	-0.4999	l	1	5	1	6	0	0	4
19990.999956291336	19991.749956291336	5.35	5.3477996256624465	20002.349880708338	19996.349956291335	19996.347755917	19996.349956291335	19996.360749625	20002.349956291335	20002.360293209	6	4.929395125662268	1.9293951256622677	0.25975299999845447	40	604.81	-0.6	-0.4999	l	1	5	1	6	0	0	4
19990.999956291336	19992.499956291336	5.35	5.3477996256624465	20002.349880708338	19996.349956291335	19996.347755917	19996.349956291335	19996.360749625	20002.349956291335	20002.360293209	6	4.929395125662268	1.9293951256622677	0.25975299999845447	40	601.65	-0.6	-0.4999	l	1	5	1	6	0	0	4
19990.999956291336	19993.249956291336	5.35	5.3477996256624465	20002.349880708338	19996.349956291335	19996.347755917	19996.349956291335	19996.360749625	20002.349956291335	20002.360293209	6	4.929395125662268	1.9293951256622677	0.25975299999845447	40	598.37	-0.6	-0.4999	l	1	5	1	6	0	0	4
19990.999956291336	19993.999956291336	5.35	5.3477996256624465	20002.349880708338	19996.349956291335	19996.347755917	19996.349956291335	19996.360749625	20002.349956291335	20002.360293209	6	4.929395125662268	1.9293951256622677	0.25975299999845447	40	601.48	-0.6	-0.4999	l	1	5	1	6	0	0	4
19990.999956291336	19994.749956291336	5.35	5.3477996256624465	20002.349880708338	19996.349956291335	19996.347755917	19996.349956291335	19996.360749625	20002.349956291335	20002.360293209	6	4.929395125662268	1.9293951256622677	0.25975299999845447	40	602.93	-0.6	-0.4999	l	1	5	1	6	0	0	4
19990.999956291336	19995.499956291336	5.35	5.3477996256624465	20002.349880708338	19996.349956291335	19996.347755917	19996.349956291335	19996.360749625	20002.349956291335	20002.360293209	6	4.929395125662268	1.9293951256622677	0.25975299999845447	40	656.37	-0.6	-0.4999	l	1	5	1	6	1	0	4
19990.999956291336	19996.249956291336	5.35	5.3477996256624465	20002.349880708338	19996.349956291335	19996.347755917	19996.349956291335	19996.360749625	20002.349956291335	20002.360293209	6	4.929395125662268	1.9293951256622677	0.25975299999845447	40	604.33	-0.6	-0.4999	l	1	5	1	6	0	0	4
20002.367693083335	20002.367693083335	5.35	5.348881125664775	20013.717618291335	20007.717693083334	20007.716574209	20007.717693083334	20007.72730725	20013.717693083334	20013.727400292	6	4.010543541666266	1.7605435416662658	0.3930796249987907	40	602.11	-0.6	-0.4999	i	1	5	1	5	0	0	5
20002.367693083335	20003.117693083335	5.35	5.348881125664775	20013.717618291335	20007.717693083334	20007.716574209	20007.717693083334	20007.72730725	20013.717693083334	20013.727400292	6	4.010543541666266	1.7605435416662658	0.3930796249987907	40	603.32	-0.6	-0.4999	i	1	5	1	5	0	0	5
20002.367693083335	20003.867693083335	5.35	5.348881125664775	20013.717618291335	20007.717693083334	20007.716574209	20007.717693083334	20007.72730725	20013.717693083334	20013.727400292	6	4.010543541666266	1.7605435416662658	0.3930796249987907	40	603.84	-0.6	-0.4999	i	1	5	1	5	0	0	5
20002.367693083335	20004.617693083335	5.35	5.348881125664775	20013.717618291335	20007.717693083334	20007.716574209	20007.717693083334	20007.72730725	20013.717693083334	20013.727400292	6	4.010543541666266	1.7605435416662658	0.3930796249987907	40	605.32	-0.6	-0.4999	i	1	5	1	5	0	0	5
20002.367693083335	20005.367693083335	5.35	5.348881125664775	20013.717618291335	20007.717693083334	20007.716574209	20007.717693083334	20007.72730725	20013.717693083334	20013.727400292	6	4.010543541666266	1.7605435416662658	0.3930796249987907	40	604.52	-0.6	-0.4999	i	1	5	1	5	0	0	5
20002.367693083335	20006.117693083335	5.35	5.348881125664775	20013.717618291335	20007.717693083334	20007.716574209	20007.717693083334	20007.72730725	20013.717693083334	20013.727400292	6	4.010543541666266	1.7605435416662658	0.3930796249987907	40	677.14	-0.6	-0.4999	i	1	5	1	5	1	0	5
20002.367693083335	20006.867693083335	5.35	5.348881125664775	20013.717618291335	20007.717693083334	20007.716574209	20007.717693083334	20007.72730725	20013.717693083334	20013.727400292	6	4.010543541666266	1.7605435416662658	0.3930796249987907	40	612.44	-0.6	-0.4999	i	1	5	1	5	0	0	5
20002.367693083335	20007.617693083335	5.35	5.348881125664775	20013.717618291335	20007.717693083334	20007.716574209	20007.717693083334	20007.72730725	20013.717693083334	20013.727400292	6	4.010543541666266	1.7605435416662658	0.3930796249987907	40	614.97	-0.6	-0.4999	i	1	5	1	5	0	0	5
20013.733868166335	20013.733868166335	5.35	5.347304417664418	20025.083793499336	20019.083868166334	20019.081172584	20019.083868166334	20019.0942195	20025.083868166334	20025.09428625	6	1.8110896256657725	-2.6889103743342275	0.5124862499978917	40	612.65	-0.6	-0.4999	v	5	5	2	0	0	0	6
20013.733868166335	20014.483868166335	5.35	5.347304417664418	20025.083793499336	20019.083868166334	20019.081172584	20019.083868166334	20019.0942195	20025.083868166334	20025.09428625	6	1.8110896256657725	-2.6889103743342275	0.5124862499978917	40	618.83	-0.6	-0.4999	v	5	5	2	0	0	0	6
20013.733868166335	20015.233868166335	5.35	5.347304417664418	20025.083793499336	20019.083868166334	20019.081172584	20019.083868166334	20019.0942195	20025.083868166334	20025.09428625	6	1.8110896256657725	-2.6889103743342275	0.5124862499978917	40	618.37	-0.6	-0.4999	v	5	5	2	0	0	0	6
20013.733868166335	20015.983868166335	5.35	5.347304417664418	20025.083793499336	20019.083868166334	20019.081172584	20019.083868166334	20019.0942195	20025.083868166334	20025.09428625	6	1.8110896256657725	-2.6889103743342275	0.5124862499978917	40	620.83	-0.6	-0.4999	v	5	5	2	0	0	0	6
20013.733868166335	20016.733868166335	5.35	5.347304417664418	20025.083793499336	20019.083868166334	20019.081172584	20019.083868166334	20019.0942195	20025.083868166334	20025.09428625	6	1.8110896256657725	-2.6889103743342275	0.5124862499978917	40	624.84	-0.6	-0.4999	v	5	5	2	0	0	0	6
20013.733868166335	20017.483868166335	5.35	5.347304417664418	20025.083793499336	20019.083868166334	20019.081172584	20019.083868166334	20019.0942195	20025.083868166334	20025.09428625	6	1.8110896256657725	-2.6889103743342275	0.5124862499978917	40	626.8	-0.6	-0.4999	v	5	5	2	0	0	0	6
20013.733868166335	20018.233868166335	5.35	5.347304417664418	20025.083793499336	20019.083868166334	20019.081172584	20019.083868166334	20019.0942195	20025.083868166334	20025.09428625	6	1.8110896256657725	-2.6889103743342275	0.5124862499978917	40	627.91	-0.6	-0.4999	v	5	5	2	0	0	0	6
20013.733868166335	20018.983868166335	5.35	5.347304417664418	20025.083793499336	20019.083868166334	20019.081172584	20019.083868166334	20019.0942195	20025.083868166334	20025.09428625	6	1.8110896256657725	-2.6889103743342275	0.5124862499978917	40	629.04	-0.6	-0.4999	v	5	5	2	0	0	0	6
20025.100980874337	20025.100980874337	5.35	5.3473380006616935	20036.450907499337	20030.450980874335	20030.448318875	20030.450980874335	20030.460602375	20036.450980874335	20036.460419917	6	2.0326401676647947	2.0326401676647947	0.41718091599977924	40	627.61	-0.6	-0.4999	v	1	5	0	2	0	0	7
20025.100980874337	20025.850980874337	5.35	5.3473380006616935	20036.450907499337	20030.450980874335	20030.448318875	20030.450980874335	20030.460602375	20036.450980874335	20036.460419917	6	2.0326401676647947	2.0326401676647947	0.41718091599977924	40	629.48	-0.6	-0.4999	v	1	5	0	2	0	0	7
20025.100980874337	20026.600980874337	5.35	5.3473380006616935	20036.450907499337	20030.450980874335	20030.448318875	20030.450980874335	20030.460602375	20036.450980874335	20036.460419917	6	2.0326401676647947	2.0326401676647947	0.41718091599977924	40	664.37	-0.6	-0.4999	v	1	5	0	2	1	0	7
20025.100980874337	20027.350980874337	5.35	5.3473380006616935	20036.450907499337	20030.450980874335	20030.448318875	20030.450980874335	20030.460602375	20036.450980874335	20036.460419917	6	2.0326401676647947	2.0326401676647947	0.41718091599977924	40	621.81	-0.6	-0.4999	v	1	5	0	2	0	0	7
20025.100980874337	20028.100980874337	5.35	5.3473380006616935	20036.450907499337	20030.450980874335	20030.448318875	20030.450980874335	20030.460602375	20036.450980874335	20036.460419917	6	2.0326401676647947	2.0326401676647947	0.41718091599977924	40	620.92	-0.6	-0.4999	v	1	5	0	2	0	0	7
20025.100980874337	20028.850980874337	5.35	5.3473380006616935	20036.450907499337	20030.450980874335	20030.448318875	20030.450980874335	20030.460602375	20036.450980874335	20036.460419917	6	2.0326401676647947	2.0326401676647947	0.41718091599977924	40	618.27	-0.6	-0.4999	v	1	5	0	2	0	0	7
20025.100980874337	20029.600980874337	5.35	5.3473380006616935	20036.450907499337	20030.450980874335	20030.448318875	20030.450980874335	20030.460602375	20036.450980874335	20036.460419917	6	2.0326401676647947	2.0326401676647947	0.41718091599977924	40	612.37	-0.6	-0.4999	v	1	5	0	2	0	0	7
20025.100980874337	20030.350980874337	5.35	5.3473380006616935	20036.450907499337	20030.450980874335	20030.448318875	20030.450980874335	20030.460602375	20036.450980874335	20036.460419917	6	2.0326401676647947	2.0326401676647947	0.41718091599977924	40	613.14	-0.6	-0.4999	v	1	5	0	2	0	0	7
20036.466844916336	20036.466844916336	5.35	5.347526625664614	20047.816771999336	20041.816844916335	20041.814371542	20041.816844916335	20041.8259365	20047.816844916335	20047.827327709	6	5.414699417662632	4.664699417662632	0.5984453749988461	40	610.21	-0.6	-0.4999	y	1	5	0	3	0	0	8
20036.466844916336	20037.216844916336	5.35	5.347526625664614	20047.816771999336	20041.816844916335	20041.814371542	20041.816844916335	20041.8259365	20047.816844916335	20047.827327709	6	5.414699417662632	4.664699417662632	0.5984453749988461	40	613.65	-0.6	-0.4999	y	1	5	0	3	0	0	8
20036.466844916336	20037.966844916336	5.35	5.347526625664614	20047.816771999336	20041.816844916335	20041.814371542	20041.816844916335	20041.8259365	20047.816844916335	20047.827327709	6	5.414699417662632	4.664699417662632	0.5984453749988461	40	619.86	-0.6	-0.4999	y	1	5	0	3	0	0	8
20036.466844916336	20038.716844916336	5.35	5.347526625664614	20047.816771999336	20041.816844916335	20041.814371542	20041.816844916335	20041.8259365	20047.816844916335	20047.827327709	6	5.414699417662632	4.664699417662632	0.5984453749988461	40	636.54	-0.6	-0.4999	y	1	5	0	3	1	0	8
20036.466844916336	20039.466844916336	5.35	5.347526625664614	20047.816771999336	20041.816844916335	20041.814371542	20041.816844916335	20041.8259365	20047.816844916335	20047.827327709	6	5.414699417662632	4.664699417662632	0.5984453749988461	40	629.78	-0.6	-0.4999	y	1	5	0	3	0	0	8
20036.466844916336	20040.216844916336	5.35	5.347526625664614	20047.816771999336	20041.816844916335	20041.814371542	20041.816844916335	20041.8259365	20047.816844916335	20047.827327709	6	5.414699417662632	4.664699417662632	0.5984453749988461	40	620.13	-0.6	-0.4999	y	1	5	0	3	0	0	8
20036.466844916336	20040.966844916336	5.35	5.347526625664614	20047.816771999336	20041.816844916335	20041.814371542	20041.816844916335	20041.8259365	20047.816844916335	20047.827327709	6	5.414699417662632	4.664699417662632	0.5984453749988461	40	612.59	-0.6	-0.4999	y	1	5	0	3	0	0	8
20036.466844916336	20041.716844916336	5.35	5.347526625664614	20047.816771999336	20041.816844916335	20041.814371542	20041.816844916335	20041.8259365	20047.816844916335	20047.827327709	6	5.414699417662632	4.664699417662632	0.5984453749988461	40	611.96	-0.6	-0.4999	y	1	5	0	3	0	0	8
20047.835209374338	20047.835209374338	5.35	5.347890084660321	20059.185135833337	20053.185209374336	20053.183099459	20053.185209374336	20053.193688334	20059.185209374336	20059.193869	6	2.5796312096608744	-1.9203687903391256	0.4105500000005122	40	612.18	-0.6	-0.4999	v	5	5	2	0	0	0	9
20047.835209374338	20048.585209374338	5.35	5.347890084660321	20059.185135833337	20053.185209374336	20053.183099459	20053.185209374336	20053.193688334	20059.185209374336	20059.193869	6	2.5796312096608744	-1.9203687903391256	0.4105500000005122	40	616.44	-0.6	-0.4999	v	5	5	2	0	0	0	9
20047.835209374338	20049.335209374338	5.35	5.347890084660321	20059.185135833337	20053.185209374336	20053.183099459	20053.185209374336	20053.193688334	20059.185209374336	20059.193869	6	2.5796312096608744	-1.9203687903391256	0.4105500000005122	40	615.16	-0.6	-0.4999	v	5	5	2	0	0	0	9
20047.835209374338	20050.085209374338	5.35	5.347890084660321	20059.185135833337	20053.185209374336	20053.183099459	20053.185209374336	20053.193688334	20059.185209374336	20059.193869	6	2.5796312096608744	-1.9203687903391256	0.4105500000005122	40	620.45	-0.6	-0.4999	v	5	5	2	0	0	0	9
20047.835209374338	20050.835209374338	5.35	5.347890084660321	20059.185135833337	20053.185209374336	20053.183099459	20053.185209374336	20053.193688334	20059.185209374336	20059.193869	6	2.5796312096608744	-1.9203687903391256	0.4105500000005122	40	625.26	-0.6	-0.4999	v	5	5	2	0	0	0	9
20047.835209374338	20051.585209374338	5.35	5.347890084660321	20059.185135833337	20053.185209374336	20053.183099459	20053.185209374336	20053.193688334	20059.185209374336	20059.193869	6	2.5796312096608744	-1.9203687903391256	0.4105500000005122	40	625.37	-0.6	-0.4999	v	5	5	2	0	0	0	9
20047.835209374338	20052.335209374338	5.35	5.347890084660321	20059.185135833337	20053.185209374336	20053.183099459	20053.185209374336	20053.193688334	20059.185209374336	20059.193869	6	2.5796312096608744	-1.9203687903391256	0.4105500000005122	40	618.67	-0.6	-0.4999	v	5	5	2	0	0	0	9
20047.835209374338	20053.085209374338	5.35	5.347890084660321	20059.185135833337	20053.185209374336	20053.183099459	20053.185209374336	20053.193688334	20059.185209374336	20059.193869	6	2.5796312096608744	-1.9203687903391256	0.4105500000005122	40	618.74	-0.6	-0.4999	v	5	5	2	0	0	0	9
20059.199823249335	20059.199823249335	5.35	5.345938917664171	20070.54975074934	20064.549823249334	20064.545762167	20064.549823249334	20064.559301125	20070.549823249334	20070.559901167	6	3.594608084666106	3.594608084666106	0.5429493750016263	40	617.57	-0.6	-0.4999	v	1	5	0	2	0	0	10
20059.199823249335	20059.949823249335	5.35	5.345938917664171	20070.54975074934	20064.549823249334	20064.545762167	20064.549823249334	20064.559301125	20070.549823249334	20070.559901167	6	3.594608084666106	3.594608084666106	0.5429493750016263	40	617.95	-0.6	-0.4999	v	1	5	0	2	0	0	10
20059.199823249335	20060.699823249335	5.35	5.345938917664171	20070.54975074934	20064.549823249334	20064.545762167	20064.549823249334	20064.559301125	20070.549823249334	20070.559901167	6	3.594608084666106	3.594608084666106	0.5429493750016263	40	632.47	-0.6	-0.4999	v	1	5	0	2	1	0	10
20059.199823249335	20061.449823249335	5.35	5.345938917664171	20070.54975074934	20064.549823249334	20064.545762167	20064.549823249334	20064.559301125	20070.549823249334	20070.559901167	6	3.594608084666106	3.594608084666106	0.5429493750016263	40	620.7	-0.6	-0.4999	v	1	5	0	2	0	0	10
20059.199823249335	20062.199823249335	5.35	5.345938917664171	20070.54975074934	20064.549823249334	20064.545762167	20064.549823249334	20064.559301125	20070.549823249334	20070.559901167	6	3.594608084666106	3.594608084666106	0.5429493750016263	40	618.34	-0.6	-0.4999	v	1	5	0	2	0	0	10
20059.199823249335	20062.949823249335	5.35	5.345938917664171	20070.54975074934	20064.549823249334	20064.545762167	20064.549823249334	20064.559301125	20070.549823249334	20070.559901167	6	3.594608084666106	3.594608084666106	0.5429493750016263	40	622.96	-0.6	-0.4999	v	1	5	0	2	0	0	10
20059.199823249335	20063.699823249335	5.35	5.345938917664171	20070.54975074934	20064.549823249334	20064.545762167	20064.549823249334	20064.559301125	20070.549823249334	20070.559901167	6	3.594608084666106	3.594608084666106	0.5429493750016263	40	626.75	-0.6	-0.4999	v	1	5	0	2	0	0	10
20059.199823249335	20064.449823249335	5.35	5.345938917664171	20070.54975074934	20064.549823249334	20064.545762167	20064.549823249334	20064.559301125	20070.549823249334	20070.559901167	6	3.594608084666106	3.594608084666106	0.5429493750016263	40	622.37	-0.6	-0.4999	v	1	5	0	2	0	0	10
20070.565688124338	20070.565688124338	5.35	5.348742334663257	20081.915616208338	20075.915688124336	20075.914430459	20075.915688124336	20075.925842875	20081.915688124336	20081.927144125	6	2.6952225846616784	1.1952225846616784	0.3822142500030168	40	624.64	-0.6	-0.4999	v	0	5	0	4	0	0	11
20070.565688124338	20071.315688124338	5.35	5.348742334663257	20081.915616208338	20075.915688124336	20075.914430459	20075.915688124336	20075.925842875	20081.915688124336	20081.927144125	6	2.6952225846616784	1.1952225846616784	0.3822142500030168	40	626.38	-0.6	-0.4999	v	0	5	0	4	0	0	11
20070.565688124338	20072.065688124338	5.35	5.348742334663257	20081.915616208338	20075.915688124336	20075.914430459	20075.915688124336	20075.925842875	20081.915688124336	20081.927144125	6	2.6952225846616784	1.1952225846616784	0.3822142500030168	40	626.16	-0.6	-0.4999	v	0	5	0	4	0	0	11
20070.565688124338	20072.815688124338	5.35	5.348742334663257	20081.915616208338	20075.915688124336	20075.914430459	20075.915688124336	20075.925842875	20081.915688124336	20081.927144125	6	2.6952225846616784	1.1952225846616784	0.3822142500030168	40	624.34	-0.6	-0.4999	v	0	5	0	4	0	0	11
20070.565688124338	20073.565688124338	5.35	5.348742334663257	20081.915616208338	20075.915688124336	20075.914430459	20075.915688124336	20075.925842875	20081.915688124336	20081.927144125	6	2.6952225846616784	1.1952225846616784	0.3822142500030168	40	644.16	-0.6	-0.4999	v	0	5	0	4	1	0	11
20070.565688124338	20074.315688124338	5.35	5.348742334663257	20081.915616208338	20075.915688124336	20075.914430459	20075.915688124336	20075.925842875	20081.915688124336	20081.927144125	6	2.6952225846616784	1.1952225846616784	0.3822142500030168	40	617.99	-0.6	-0.4999	v	0	5	0	4	0	0	11
20070.565688124338	20075.065688124338	5.35	5.348742334663257	20081.915616208338	20075.915688124336	20075.914430459	20075.915688124336	20075.925842875	20081.915688124336	20081.927144125	6	2.6952225846616784	1.1952225846616784	0.3822142500030168	40	620.44	-0.6	-0.4999	v	0	5	0	4	0	0	11
20070.565688124338	20075.815688124338	5.35	5.348742334663257	20081.915616208338	20075.915688124336	20075.914430459	20075.915688124336	20075.925842875	20081.915688124336	20081.927144125	6	2.6952225846616784	1.1952225846616784	0.3822142500030168	40	622.17	-0.6	-0.4999	v	0	5	0	4	0	0	11
20081.933741083336	20081.933741083336	5.35	5.34905916666321	20093.283668416338	20087.283741083334	20087.28280025	20087.283741083334	20087.293009292	20093.283741083334	20093.292395542	6			0.5270425420021638	40	621.2	-0.6	-0.4999		3	5	0	4	0	0	12
20081.933741083336	20082.683741083336	5.35	5.34905916666321	20093.283668416338	20087.283741083334	20087.28280025	20087.283741083334	20087.293009292	20093.283741083334	20093.292395542	6			0.5270425420021638	40	621.33	-0.6	-0.4999		3	5	0	4	0	0	12
20081.933741083336	20083.433741083336	5.35	5.34905916666321	20093.283668416338	20087.283741083334	20087.28280025	20087.283741083334	20087.293009292	20093.283741083334	20093.292395542	6			0.5270425420021638	40	617.77	-0.6	-0.4999		3	5	0	4	0	0	12
20081.933741083336	20084.183741083336	5.35	5.34905916666321	20093.283668416338	20087.283741083334	20087.28280025	20087.283741083334	20087.293009292	20093.283741083334	20093.292395542	6			0.5270425420021638	40	622.74	-0.6	-0.4999		3	5	0	4	0	0	12
20081.933741083336	20084.933741083336	5.35	5.34905916666321	20093.283668416338	20087.283741083334	20087.28280025	20087.283741083334	20087.293009292	20093.283741083334	20093.292395542	6			0.5270425420021638	40	651.88	-0.6	-0.4999		3	5	0	4	1	0	12
20081.933741083336	20085.683741083336	5.35	5.34905916666321	20093.283668416338	20087.283741083334	20087.28280025	20087.283741083334	20087.293009292	20093.283741083334	20093.292395542	6			0.5270425420021638	40	624.6	-0.6	-0.4999		3	5	0	4	0	0	12
20081.933741083336	20086.433741083336	5.35	5.34905916666321	20093.283668416338	20087.283741083334	20087.28280025	20087.283741083334	20087.293009292	20093.283741083334	20093.292395542	6			0.5270425420021638	40	623.69	-0.6	-0.4999		3	5	0	4	0	0	12
20081.933741083336	20087.183741083336	5.35	5.34905916666321	20093.283668416338	20087.283741083334	20087.28280025	20087.283741083334	20087.293009292	20093.283741083334	20093.292395542	6			0.5270425420021638	40	618.32	-0.6	-0.4999		3	5	0	4	0	0	12
20093.298355833336	20093.298355833336	5.35	5.348940666663111	20104.648282333335	20098.648355833335	20098.6472965	20098.648355833335	20098.65999225	20104.648355833335	20104.659889875	6				40	618.02	-0.6	-0.4999		3		0	4	0	0	13
20093.298355833336	20094.048355833336	5.35	5.348940666663111	20104.648282333335	20098.648355833335	20098.6472965	20098.648355833335	20098.65999225	20104.648355833335	20104.659889875	6				40	616.21	-0.6	-0.4999		3		0	4	0	0	13
20093.298355833336	20094.798355833336	5.35	5.348940666663111	20104.648282333335	20098.648355833335	20098.6472965	20098.648355833335	20098.65999225	20104.648355833335	20104.659889875	6				40	613.64	-0.6	-0.4999		3		0	4	0	0	13
20093.298355833336	20095.548355833336	5.35	5.348940666663111	20104.648282333335	20098.648355833335	20098.6472965	20098.648355833335	20098.65999225	20104.648355833335	20104.659889875	6				40	612.92	-0.6	-0.4999		3		0	4	0	0	13
20093.298355833336	20096.298355833336	5.35	5.348940666663111	20104.648282333335	20098.648355833335	20098.6472965	20098.648355833335	20098.65999225	20104.648355833335	20104.659889875	6				40	655.1	-0.6	-0.4999		3		0	4	1	0	13
20093.298355833336	20097.048355833336	5.35	5.348940666663111	20104.648282333335	20098.648355833335	20098.6472965	20098.648355833335	20098.65999225	20104.648355833335	20104.659889875	6				40	614.25	-0.6	-0.4999		3		0	4	0	0	13
20093.298355833336	20097.798355833336	5.35	5.348940666663111	20104.648282333335	20098.648355833335	20098.6472965	20098.648355833335	20098.65999225	20104.648355833335	20104.659889875	6				40	617.15	-0.6	-0.4999		3		0	4	0	0	13
20093.298355833336	20098.548355833336	5.35	5.348940666663111	20104.648282333335	20098.648355833335	20098.6472965	20098.648355833335	20098.65999225	20104.648355833335	20104.659889875	6				40	612.65	-0.6	-0.4999		3		0	4	0	0	13
20104.667032208337	20104.667032208337	5.35	5.349666583661019	20116.016959291337	20110.017032208336	20110.016698792	20110.017032208336	20110.02702475	20116.017032208336	20116.026979417	6				40	613.02	-0.6	-0.4999		3		0	4	0	0	14
20104.667032208337	20105.417032208337	5.35	5.349666583661019	20116.016959291337	20110.017032208336	20110.016698792	20110.017032208336	20110.02702475	20116.017032208336	20116.026979417	6				40	608.73	-0.6	-0.4999		3		0	4	0	0	14
20104.667032208337	20106.167032208337	5.35	5.349666583661019	20116.016959291337	20110.017032208336	20110.016698792	20110.017032208336	20110.02702475	20116.017032208336	20116.026979417	6				40	607.25	-0.6	-0.4999		3		0	4	0	0	14
20104.667032208337	20106.917032208337	5.35	5.349666583661019	20116.016959291337	20110.017032208336	20110.016698792	20110.017032208336	20110.02702475	20116.017032208336	20116.026979417	6				40	605.65	-0.6	-0.4999		3		0	4	0	0	14
20104.667032208337	20107.667032208337	5.35	5.349666583661019	20116.016959291337	20110.017032208336	20110.016698792	20110.017032208336	20110.02702475	20116.017032208336	20116.026979417	6				40	654.46	-0.6	-0.4999		3		0	4	1	0	14
20104.667032208337	20108.417032208337	5.35	5.349666583661019	20116.016959291337	20110.017032208336	20110.016698792	20110.017032208336	20110.02702475	20116.017032208336	20116.026979417	6				40	605.88	-0.6	-0.4999		3		0	4	0	0	14
20104.667032208337	20109.167032208337	5.35	5.349666583661019	20116.016959291337	20110.017032208336	20110.016698792	20110.017032208336	20110.02702475	20116.017032208336	20116.026979417	6				40	609.91	-0.6	-0.4999		3		0	4	0	0	14
20104.667032208337	20109.917032208337	5.35	5.349666583661019	20116.016959291337	20110.017032208336	20110.016698792	20110.017032208336	20110.02702475	20116.017032208336	20116.026979417	6				40	603.46	-0.6	-0.4999		3		0	4	0	0	14
20116.032896666336	20116.032896666336	5.35	5.3493140836617386	20127.382823999338	20121.382896666335	20121.38221075	20121.382896666335	20121.393661834	20127.382896666335	20127.393544584	6				40	600.35	-0.6	-0.4999		3		0	4	0	0	15
20116.032896666336	20116.782896666336	5.35	5.3493140836617386	20127.382823999338	20121.382896666335	20121.38221075	20121.382896666335	20121.393661834	20127.382896666335	20127.393544584	6				40	601.34	-0.6	-0.4999		3		0	4	0	0	15
20116.032896666336	20117.532896666336	5.35	5.3493140836617386	20127.382823999338	20121.382896666335	20121.38221075	20121.382896666335	20121.393661834	20127.382896666335	20127.393544584	6				40	607.9	-0.6	-0.4999		3		0	4	0	0	15
20116.032896666336	20118.282896666336	5.35	5.3493140836617386	20127.382823999338	20121.382896666335	20121.38221075	20121.382896666335	20121.393661834	20127.382896666335	20127.393544584	6				40	609.18	-0.6	-0.4999		3		0	4	0	0	15
20116.032896666336	20119.032896666336	5.35	5.3493140836617386	20127.382823999338	20121.382896666335	20121.38221075	20121.382896666335	20121.393661834	20127.382896666335	20127.393544584	6				40	665.33	-0.6	-0.4999		3		0	4	1	0	15
20116.032896666336	20119.782896666336	5.35	5.3493140836617386	20127.382823999338	20121.382896666335	20121.38221075	20121.382896666335	20121.393661834	20127.382896666335	20127.393544584	6				40	615.21	-0.6	-0.4999		3		0	4	0	0	15
20116.032896666336	20120.532896666336	5.35	5.3493140836617386	20127.382823999338	20121.382896666335	20121.38221075	20121.382896666335	20121.393661834	20127.382896666335	20127.393544584	6				40	613.92	-0.6	-0.4999		3		0	4	0	0	15
20116.032896666336	20121.282896666336	5.35	5.3493140836617386	20127.382823999338	20121.382896666335	20121.38221075	20121.382896666335	20121.393661834	20127.382896666335	20127.393544584	6				40	608.27	-0.6	-0.4999		3		0	4	0	0	15
20127.400948874336	20127.400948874336	5.35	5.3462620846657956	20138.75087674934	20132.750948874334	20132.747210959	20132.750948874334	20132.758717125	20138.750948874334	20138.759418667	6				40	612.69	-0.6	-0.4999		3		0	3	0	0	16
20127.400948874336	20128.150948874336	5.35	5.3462620846657956	20138.75087674934	20132.750948874334	20132.747210959	20132.750948874334	20132.758717125	20138.750948874334	20138.759418667	6				40	607.56	-0.6	-0.4999		3		0	3	0	0	16
20127.400948874336	20128.900948874336	5.35	5.3462620846657956	20138.75087674934	20132.750948874334	20132.747210959	20132.750948874334	20132.758717125	20138.750948874334	20138.759418667	6				40	603.83	-0.6	-0.4999		3		0	3	0	0	16
20127.400948874336	20129.650948874336	5.35	5.3462620846657956	20138.75087674934	20132.750948874334	20132.747210959	20132.750948874334	20132.758717125	20138.750948874334	20138.759418667	6				40	658.14	-0.6	-0.4999		3		0	3	1	0	16
20127.400948874336	20130.400948874336	5.35	5.3462620846657956	20138.75087674934	20132.750948874334	20132.747210959	20132.750948874334	20132.758717125	20138.750948874334	20138.759418667	6				40	599.96	-0.6	-0.4999		3		0	3	0	0	16
20127.400948874336	20131.150948874336	5.35	5.3462620846657956	20138.75087674934	20132.750948874334	20132.747210959	20132.750948874334	20132.758717125	20138.750948874334	20138.759418667	6				40	595.07	-0.6	-0.4999		3		0	3	0	0	16
20127.400948874336	20131.900948874336	5.35	5.3462620846657956	20138.75087674934	20132.750948874334	20132.747210959	20132.750948874334	20132.758717125	20138.750948874334	20138.759418667	6				40	590.78	-0.6	-0.4999		3		0	3	0	0	16
20127.400948874336	20132.650948874336	5.35	5.3462620846657956	20138.75087674934	20132.750948874334	20132.747210959	20132.750948874334	20132.758717125	20138.750948874334	20138.759418667	6				40	589.76	-0.6	-0.4999		3		0	3	0	0	16
20138.765876624337	20138.765876624337	5.35	5.3463414596626535	20150.115804708337	20144.115876624335	20144.112218084	20144.115876624335	20144.12677675	20150.115876624335	20150.11627225	6				40	589.34	-0.6	-0.4999		3		0	2	0	0	17
20138.765876624337	20139.515876624337	5.35	5.3463414596626535	20150.115804708337	20144.115876624335	20144.112218084	20144.115876624335	20144.12677675	20150.115876624335	20150.11627225	6				40	594.97	-0.6	-0.4999		3		0	2	0	0	17
20138.765876624337	20140.265876624337	5.35	5.3463414596626535	20150.115804708337	20144.115876624335	20144.112218084	20144.115876624335	20144.12677675	20150.115876624335	20150.11627225	6				40	638.67	-0.6	-0.4999		3		0	2	1	0	17
20138.765876624337	20141.015876624337	5.35	5.3463414596626535	20150.115804708337	20144.115876624335	20144.112218084	20144.115876624335	20144.12677675	20150.115876624335	20150.11627225	6				40	587.1	-0.6	-0.4999		3		0	2	0	0	17
20138.765876624337	20141.765876624337	5.35	5.3463414596626535	20150.115804708337	20144.115876624335	20144.112218084	20144.115876624335	20144.12677675	20150.115876624335	20150.11627225	6				40	585.22	-0.6	-0.4999		3		0	2	0	0	17
20138.765876624337	20142.515876624337	5.35	5.3463414596626535	20150.115804708337	20144.115876624335	20144.112218084	20144.115876624335	20144.12677675	20150.115876624335	20150.11627225	6				40	582.03	-0.6	-0.4999		3		0	2	0	0	17
20138.765876624337	20143.265876624337	5.35	5.3463414596626535	20150.115804708337	20144.115876624335	20144.112218084	20144.115876624335	20144.12677675	20150.115876624335	20150.11627225	6				40	576.2	-0.6	-0.4999		3		0	2	0	0	17
20138.765876624337	20144.015876624337	5.35	5.3463414596626535	20150.115804708337	20144.115876624335	20144.112218084	20144.115876624335	20144.12677675	20150.115876624335	20150.11627225	6				40	571.71	-0.6	-0.4999		3		0	2	0	0	17
20150.122367166336	20150.122367166336	5.35	5.343409208664525	20161.472294874337	20155.472367166334	20155.465776375	20155.472367166334	20155.476811584	20161.472367166334	20161.476742584	6				40	571.09	-0.6	-0.4999		3		1	5	0	0	18
20150.122367166336	20150.872367166336	5.35	5.343409208664525	20161.472294874337	20155.472367166334	20155.465776375	20155.472367166334	20155.476811584	20161.472367166334	20161.476742584	6				40	576.55	-0.6	-0.4999		3		1	5	0	0	18
20150.122367166336	20151.622367166336	5.35	5.343409208664525	20161.472294874337	20155.472367166334	20155.465776375	20155.472367166334	20155.476811584	20161.472367166334	20161.476742584	6				40	576.7	-0.6	-0.4999		3		1	5	0	0	18
20150.122367166336	20152.372367166336	5.35	5.343409208664525	20161.472294874337	20155.472367166334	20155.465776375	20155.472367166334	20155.476811584	20161.472367166334	20161.476742584	6				40	579.3	-0.6	-0.4999		3		1	5	0	0	18
20150.122367166336	20153.122367166336	5.35	5.343409208664525	20161.472294874337	20155.472367166334	20155.465776375	20155.472367166334	20155.476811584	20161.472367166334	20161.476742584	6				40	580.73	-0.6	-0.4999		3		1	5	0	0	18
20150.122367166336	20153.872367166336	5.35	5.343409208664525	20161.472294874337	20155.472367166334	20155.465776375	20155.472367166334	20155.476811584	20161.472367166334	20161.476742584	6				40	649.95	-0.6	-0.4999		3		1	5	1	0	18
20150.122367166336	20154.622367166336	5.35	5.343409208664525	20161.472294874337	20155.472367166334	20155.465776375	20155.472367166334	20155.476811584	20161.472367166334	20161.476742584	6				40	577.51	-0.6	-0.4999		3		1	5	0	0	18
20150.122367166336	20155.372367166336	5.35	5.343409208664525	20161.472294874337	20155.472367166334	20155.465776375	20155.472367166334	20155.476811584	20161.472367166334	20161.476742584	6				40	582.76	-0.6	-0.4999		3		1	5	0	0	18
20161.484169791336	20161.484169791336	5.35	5.346390833663463	20172.834097458337	20166.834169791335	20166.830560625	20166.834169791335	20166.843540542	20172.834169791335	20172.842491542	6				40	584.72	-0.6	-0.4999		3		1	6	0	0	19
20161.484169791336	20162.234169791336	5.35	5.346390833663463	20172.834097458337	20166.834169791335	20166.830560625	20166.834169791335	20166.843540542	20172.834169791335	20172.842491542	6				40	584.4	-0.6	-0.4999		3		1	6	0	0	19
20161.484169791336	20162.984169791336	5.35	5.346390833663463	20172.834097458337	20166.834169791335	20166.830560625	20166.834169791335	20166.843540542	20172.834169791335	20172.842491542	6				40	589.58	-0.6	-0.4999		3		1	6	0	0	19
20161.484169791336	20163.734169791336	5.35	5.346390833663463	20172.834097458337	20166.834169791335	20166.830560625	20166.834169791335	20166.843540542	20172.834169791335	20172.842491542	6				40	593.22	-0.6	-0.4999		3		1	6	0	0	19
20161.484169791336	20164.484169791336	5.35	5.346390833663463	20172.834097458337	20166.834169791335	20166.830560625	20166.834169791335	20166.843540542	20172.834169791335	20172.842491542	6				40	587.08	-0.6	-0.4999		3		1	6	0	0	19
20161.484169791336	20165.234169791336	5.35	5.346390833663463	20172.834097458337	20166.834169791335	20166.830560625	20166.834169791335	20166.843540542	20172.834169791335	20172.842491542	6				40	586.68	-0.6	-0.4999		3		1	6	0	0	19
20161.484169791336	20165.984169791336	5.35	5.346390833663463	20172.834097458337	20166.834169791335	20166.830560625	20166.834169791335	20166.843540542	20172.834169791335	20172.842491542	6				40	651.57	-0.6	-0.4999		3		1	6	1	0	19
20161.484169791336	20166.734169791336	5.35	5.346390833663463	20172.834097458337	20166.834169791335	20166.830560625	20166.834169791335	20166.843540542	20172.834169791335	20172.842491542	6				40	589.58	-0.6	-0.4999		3		1	6	0	0	19
20172.848472333335	20172.848472333335	5.35	5.349084125664376	20184.198401249338	20178.198472333333	20178.197556459	20178.198472333333	20178.208981709	20184.198472333333	20184.198797	6				40	588.18	-0.6	-0.4999		4		2	0	0	0	20
20172.848472333335	20173.598472333335	5.35	5.349084125664376	20184.198401249338	20178.198472333333	20178.197556459	20178.198472333333	20178.208981709	20184.198472333333	20184.198797	6				40	585.29	-0.6	-0.4999		4		2	0	0	0	20
20172.848472333335	20174.348472333335	5.35	5.349084125664376	20184.198401249338	20178.198472333333	20178.197556459	20178.198472333333	20178.208981709	20184.198472333333	20184.198797	6				40	593.54	-0.6	-0.4999		4		2	0	0	0	20
20172.848472333335	20175.098472333335	5.35	5.349084125664376	20184.198401249338	20178.198472333333	20178.197556459	20178.198472333333	20178.208981709	20184.198472333333	20184.198797	6				40	582.47	-0.6	-0.4999		4		2	0	0	0	20
20172.848472333335	20175.848472333335	5.35	5.349084125664376	20184.198401249338	20178.198472333333	20178.197556459	20178.198472333333	20178.208981709	20184.198472333333	20184.198797	6				40	581.12	-0.6	-0.4999		4		2	0	0	0	20
20172.848472333335	20176.598472333335	5.35	5.349084125664376	20184.198401249338	20178.198472333333	20178.197556459	20178.198472333333	20178.208981709	20184.198472333333	20184.198797	6				40	580.34	-0.6	-0.4999		4		2	0	0	0	20
20172.848472333335	20177.348472333335	5.35	5.349084125664376	20184.198401249338	20178.198472333333	20178.197556459	20178.198472333333	20178.208981709	20184.198472333333	20184.198797	6				40	581.53	-0.6	-0.4999		4		2	0	0	0	20
20172.848472333335	20178.098472333335	5.35	5.349084125664376	20184.198401249338	20178.198472333333	20178.197556459	20178.198472333333	20178.208981709	20184.198472333333	20184.198797	6				40	579.65	-0.6	-0.4999		4		2	0	0	0	20
20184.204338749336	20184.204338749336	5.35	5.344791917665134	20195.554268624335	20189.554338749334	20189.549130667	20189.554338749334	20189.55975375	20195.554338749334	20195.559328917	6				40	581.33	-0.6	-0.4999		3		1	5	0	0	21
20184.204338749336	20184.954338749336	5.35	5.344791917665134	20195.554268624335	20189.554338749334	20189.549130667	20189.554338749334	20189.55975375	20195.554338749334	20195.559328917	6				40	583.14	-0.6	-0.4999		3		1	5	0	0	21
20184.204338749336	20185.704338749336	5.35	5.344791917665134	20195.554268624335	20189.554338749334	20189.549130667	20189.554338749334	20189.55975375	20195.554338749334	20195.559328917	6				40	581.67	-0.6	-0.4999		3		1	5	0	0	21
20184.204338749336	20186.454338749336	5.35	5.344791917665134	20195.554268624335	20189.554338749334	20189.549130667	20189.554338749334	20189.55975375	20195.554338749334	20195.559328917	6				40	585.76	-0.6	-0.4999		3		1	5	0	0	21
20184.204338749336	20187.204338749336	5.35	5.344791917665134	20195.554268624335	20189.554338749334	20189.549130667	20189.554338749334	20189.55975375	20195.554338749334	20195.559328917	6				40	582.9	-0.6	-0.4999		3		1	5	0	0	21
20184.204338749336	20187.954338749336	5.35	5.344791917665134	20195.554268624335	20189.554338749334	20189.549130667	20189.554338749334	20189.55975375	20195.554338749334	20195.559328917	6				40	656.28	-0.6	-0.4999		3		1	5	1	0	21
20184.204338749336	20188.704338749336	5.35	5.344791917665134	20195.554268624335	20189.554338749334	20189.549130667	20189.554338749334	20189.55975375	20195.554338749334	20195.559328917	6				40	581.19	-0.6	-0.4999		3		1	5	0	0	21
20184.204338749336	20189.454338749336	5.35	5.344791917665134	20195.554268624335	20189.554338749334	20189.549130667	20189.554338749334	20189.55975375	20195.554338749334	20195.559328917	6				40	582.5	-0.6	-0.4999		3		1	5	0	0	21
20195.566143583335	20195.566143583335	5.35	5.349722833663691	20206.916072666336	20200.916143583334	20200.915866417	20200.916143583334	20200.926287292	20206.916143583334	20206.926499834	6				40	584.09	-0.6	-0.4999		3		1	5	0	0	22
20195.566143583335	20196.316143583335	5.35	5.349722833663691	20206.916072666336	20200.916143583334	20200.915866417	20200.916143583334	20200.926287292	20206.916143583334	20206.926499834	6				40	583.69	-0.6	-0.4999		3		1	5	0	0	22
20195.566143583335	20197.066143583335	5.35	5.349722833663691	20206.916072666336	20200.916143583334	20200.915866417	20200.916143583334	20200.926287292	20206.916143583334	20206.926499834	6				40	584.02	-0.6	-0.4999		3		1	5	0	0	22
20195.566143583335	20197.816143583335	5.35	5.349722833663691	20206.916072666336	20200.916143583334	20200.915866417	20200.916143583334	20200.926287292	20206.916143583334	20206.926499834	6				40	588.43	-0.6	-0.4999		3		1	5	0	0	22
20195.566143583335	20198.566143583335	5.35	5.349722833663691	20206.916072666336	20200.916143583334	20200.915866417	20200.916143583334	20200.926287292	20206.916143583334	20206.926499834	6				40	590.35	-0.6	-0.4999		3		1	5	0	0	22
20195.566143583335	20199.316143583335	5.35	5.349722833663691	20206.916072666336	20200.916143583334	20200.915866417	20200.916143583334	20200.926287292	20206.916143583334	20206.926499834	6				40	652.8	-0.6	-0.4999		3		1	5	1	0	22
20195.566143583335	20200.066143583335	5.35	5.349722833663691	20206.916072666336	20200.916143583334	20200.915866417	20200.916143583334	20200.926287292	20206.916143583334	20206.926499834	6				40	593.76	-0.6	-0.4999		3		1	5	0	0	22
20195.566143583335	20200.816143583335	5.35	5.349722833663691	20206.916072666336	20200.916143583334	20200.915866417	20200.916143583334	20200.926287292	20206.916143583334	20206.926499834	6				40	602.85	-0.6	-0.4999		3		1	5	0	0	22
20206.933260041336	20206.933260041336	5.35	5.346138292665273	20218.28318929134	20212.283260041335	20212.279398334	20212.283260041335	20212.292722292	20218.283260041335	20218.289703209	6				40	602.75	-0.6	-0.4999		3		1	6	0	0	23
20206.933260041336	20207.683260041336	5.35	5.346138292665273	20218.28318929134	20212.283260041335	20212.279398334	20212.283260041335	20212.292722292	20218.283260041335	20218.289703209	6				40	607.2	-0.6	-0.4999		3		1	6	0	0	23
20206.933260041336	20208.433260041336	5.35	5.346138292665273	20218.28318929134	20212.283260041335	20212.279398334	20212.283260041335	20212.292722292	20218.283260041335	20218.289703209	6				40	607.19	-0.6	-0.4999		3		1	6	0	0	23
20206.933260041336	20209.183260041336	5.35	5.346138292665273	20218.28318929134	20212.283260041335	20212.279398334	20212.283260041335	20212.292722292	20218.283260041335	20218.289703209	6				40	615.14	-0.6	-0.4999		3		1	6	0	0	23
20206.933260041336	20209.933260041336	5.35	5.346138292665273	20218.28318929134	20212.283260041335	20212.279398334	20212.283260041335	20212.292722292	20218.283260041335	20218.289703209	6				40	621.28	-0.6	-0.4999		3		1	6	0	0	23
20206.933260041336	20210.683260041336	5.35	5.346138292665273	20218.28318929134	20212.283260041335	20212.279398334	20212.283260041335	20212.292722292	20218.283260041335	20218.289703209	6				40	617.7	-0.6	-0.4999		3		1	6	0	0	23
20206.933260041336	20211.433260041336	5.35	5.346138292665273	20218.28318929134	20212.283260041335	20212.279398334	20212.283260041335	20212.292722292	20218.283260041335	20218.289703209	6				40	657.41	-0.6	-0.4999		3		1	6	1	0	23
20206.933260041336	20212.183260041336	5.35	5.346138292665273	20218.28318929134	20212.283260041335	20212.279398334	20212.283260041335	20212.292722292	20218.283260041335	20218.289703209	6				40	614.98	-0.6	-0.4999		3		1	6	0	0	23
20218.295689208335	20218.295689208335	5.35	5.347217125665338	20229.645619416337	20223.645689208333	20223.642906334	20223.645689208333	20223.646744875	20229.645689208333	20229.649331375	6				40	619.73	-0.6	-0.4999		3		1	4	0	0	24
20218.295689208335	20219.045689208335	5.35	5.347217125665338	20229.645619416337	20223.645689208333	20223.642906334	20223.645689208333	20223.646744875	20229.645689208333	20229.649331375	6				40	614.45	-0.6	-0.4999		3		1	4	0	0	24
20218.295689208335	20219.795689208335	5.35	5.347217125665338	20229.645619416337	20223.645689208333	20223.642906334	20223.645689208333	20223.646744875	20229.645689208333	20229.649331375	6				40	620.92	-0.6	-0.4999		3		1	4	0	0	24
20218.295689208335	20220.545689208335	5.35	5.347217125665338	20229.645619416337	20223.645689208333	20223.642906334	20223.645689208333	20223.646744875	20229.645689208333	20229.649331375	6				40	616.35	-0.6	-0.4999		3		1	4	0	0	24
20218.295689208335	20221.295689208335	5.35	5.347217125665338	20229.645619416337	20223.645689208333	20223.642906334	20223.645689208333	20223.646744875	20229.645689208333	20229.649331375	6				40	638.42	-0.6	-0.4999		3		1	4	1	0	24
20218.295689208335	20222.045689208335	5.35	5.347217125665338	20229.645619416337	20223.645689208333	20223.642906334	20223.645689208333	20223.646744875	20229.645689208333	20229.649331375	6				40	616.96	-0.6	-0.4999		3		1	4	0	0	24
20218.295689208335	20222.795689208335	5.35	5.347217125665338	20229.645619416337	20223.645689208333	20223.642906334	20223.645689208333	20223.646744875	20229.645689208333	20229.649331375	6				40	616.48	-0.6	-0.4999		3		1	4	0	0	24
20218.295689208335	20223.545689208335	5.35	5.347217125665338	20229.645619416337	20223.645689208333	20223.642906334	20223.645689208333	20223.646744875	20229.645689208333	20229.649331375	6				40	611.77	-0.6	-0.4999		3		1	4	0	0	24
20229.654994333338	20229.654994333338	5.35	5.342657583663822	20241.004923958335	20235.004994333336	20234.997651917	20235.004994333336	20235.010047167	20241.004994333336	20241.009309167	6				40	615.25	-0.6	-0.4999		3		1	5	0	0	25
20229.654994333338	20230.404994333338	5.35	5.342657583663822	20241.004923958335	20235.004994333336	20234.997651917	20235.004994333336	20235.010047167	20241.004994333336	20241.009309167	6				40	611.37	-0.6	-0.4999		3		1	5	0	0	25
20229.654994333338	20231.154994333338	5.35	5.342657583663822	20241.004923958335	20235.004994333336	20234.997651917	20235.004994333336	20235.010047167	20241.004994333336	20241.009309167	6				40	616.08	-0.6	-0.4999		3		1	5	0	0	25
20229.654994333338	20231.904994333338	5.35	5.342657583663822	20241.004923958335	20235.004994333336	20234.997651917	20235.004994333336	20235.010047167	20241.004994333336	20241.009309167	6				40	615.58	-0.6	-0.4999		3		1	5	0	0	25
20229.654994333338	20232.654994333338	5.35	5.342657583663822	20241.004923958335	20235.004994333336	20234.997651917	20235.004994333336	20235.010047167	20241.004994333336	20241.009309167	6				40	621.05	-0.6	-0.4999		3		1	5	0	0	25
20229.654994333338	20233.404994333338	5.35	5.342657583663822	20241.004923958335	20235.004994333336	20234.997651917	20235.004994333336	20235.010047167	20241.004994333336	20241.009309167	6				40	644.34	-0.6	-0.4999		3		1	5	1	0	25
20229.654994333338	20234.154994333338	5.35	5.342657583663822	20241.004923958335	20235.004994333336	20234.997651917	20235.004994333336	20235.010047167	20241.004994333336	20241.009309167	6				40	624.98	-0.6	-0.4999		3		1	5	0	0	25
20229.654994333338	20234.904994333338	5.35	5.342657583663822	20241.004923958335	20235.004994333336	20234.997651917	20235.004994333336	20235.010047167	20241.004994333336	20241.009309167	6				40	627.41	-0.6	-0.4999		3		1	5	0	0	25
20241.017111374334	20241.017111374334	5.35	5.346397084664204	20252.367041083337	20246.367111374333	20246.363508459	20246.367111374333	20246.376232084	20252.367111374333	20252.374912542	6				40	625.76	-0.6	-0.4999		3		1	6	0	0	26
20241.017111374334	20241.767111374334	5.35	5.346397084664204	20252.367041083337	20246.367111374333	20246.363508459	20246.367111374333	20246.376232084	20252.367111374333	20252.374912542	6				40	624.87	-0.6	-0.4999		3		1	6	0	0	26
20241.017111374334	20242.517111374334	5.35	5.346397084664204	20252.367041083337	20246.367111374333	20246.363508459	20246.367111374333	20246.376232084	20252.367111374333	20252.374912542	6				40	620.83	-0.6	-0.4999		3		1	6	0	0	26
20241.017111374334	20243.267111374334	5.35	5.346397084664204	20252.367041083337	20246.367111374333	20246.363508459	20246.367111374333	20246.376232084	20252.367111374333	20252.374912542	6				40	624.5	-0.6	-0.4999		3		1	6	0	0	26
20241.017111374334	20244.017111374334	5.35	5.346397084664204	20252.367041083337	20246.367111374333	20246.363508459	20246.367111374333	20246.376232084	20252.367111374333	20252.374912542	6				40	622.7	-0.6	-0.4999		3		1	6	0	0	26
20241.017111374334	20244.767111374334	5.35	5.346397084664204	20252.367041083337	20246.367111374333	20246.363508459	20246.367111374333	20246.376232084	20252.367111374333	20252.374912542	6				40	618.95	-0.6	-0.4999		3		1	6	0	0	26
20241.017111374334	20245.517111374334	5.35	5.346397084664204	20252.367041083337	20246.367111374333	20246.363508459	20246.367111374333	20246.376232084	20252.367111374333	20252.374912542	6				40	651.82	-0.6	-0.4999		3		1	6	1	0	26
20241.017111374334	20246.267111374334	5.35	5.346397084664204	20252.367041083337	20246.367111374333	20246.363508459	20246.367111374333	20246.376232084	20252.367111374333	20252.374912542	6				40	621.01	-0.6	-0.4999		3		1	6	0	0	26
20252.380478499337	20252.380478499337	5.35	5.345497334663378	20263.730408374337	20257.730478499336	20257.725975834	20257.730478499336	20257.730841375	20263.730478499336	20263.741899417	6				40	622.16	-0.6	-0.4999		3		1	4	0	0	27
20252.380478499337	20253.130478499337	5.35	5.345497334663378	20263.730408374337	20257.730478499336	20257.725975834	20257.730478499336	20257.730841375	20263.730478499336	20263.741899417	6				40	616.23	-0.6	-0.4999		3		1	4	0	0	27
20252.380478499337	20253.880478499337	5.35	5.345497334663378	20263.730408374337	20257.730478499336	20257.725975834	20257.730478499336	20257.730841375	20263.730478499336	20263.741899417	6				40	618.06	-0.6	-0.4999		3		1	4	0	0	27
20252.380478499337	20254.630478499337	5.35	5.345497334663378	20263.730408374337	20257.730478499336	20257.725975834	20257.730478499336	20257.730841375	20263.730478499336	20263.741899417	6				40	617.85	-0.6	-0.4999		3		1	4	0	0	27
20252.380478499337	20255.380478499337	5.35	5.345497334663378	20263.730408374337	20257.730478499336	20257.725975834	20257.730478499336	20257.730841375	20263.730478499336	20263.741899417	6				40	664.2	-0.6	-0.4999		3		1	4	1	0	27
20252.380478499337	20256.130478499337	5.35	5.345497334663378	20263.730408374337	20257.730478499336	20257.725975834	20257.730478499336	20257.730841375	20263.730478499336	20263.741899417	6				40	615.38	-0.6	-0.4999		3		1	4	0	0	27
20252.380478499337	20256.880478499337	5.35	5.345497334663378	20263.730408374337	20257.730478499336	20257.725975834	20257.730478499336	20257.730841375	20263.730478499336	20263.741899417	6				40	613.78	-0.6	-0.4999		3		1	4	0	0	27
20252.380478499337	20257.630478499337	5.35	5.345497334663378	20263.730408374337	20257.730478499336	20257.725975834	20257.730478499336	20257.730841375	20263.730478499336	20263.741899417	6				40	613.42	-0.6	-0.4999		3		1	4	0	0	27
20263.747595749337	20263.747595749337	5.35	5.348834625663585	20275.097524916335	20269.097595749336	20269.096430375	20269.097595749336	20269.108265959	20275.097595749336	20275.109278792	6				40	614.42	-0.6	-0.4999		3		0	3	0	0	28
20263.747595749337	20264.497595749337	5.35	5.348834625663585	20275.097524916335	20269.097595749336	20269.096430375	20269.097595749336	20269.108265959	20275.097595749336	20275.109278792	6				40	614.42	-0.6	-0.4999		3		0	3	0	0	28
20263.747595749337	20265.247595749337	5.35	5.348834625663585	20275.097524916335	20269.097595749336	20269.096430375	20269.097595749336	20269.108265959	20275.097595749336	20275.109278792	6				40	610.58	-0.6	-0.4999		3		0	3	0	0	28
20263.747595749337	20265.997595749337	5.35	5.348834625663585	20275.097524916335	20269.097595749336	20269.096430375	20269.097595749336	20269.108265959	20275.097595749336	20275.109278792	6				40	659.36	-0.6	-0.4999		3		0	3	1	0	28
20263.747595749337	20266.747595749337	5.35	5.348834625663585	20275.097524916335	20269.097595749336	20269.096430375	20269.097595749336	20269.108265959	20275.097595749336	20275.109278792	6				40	616.3	-0.6	-0.4999		3		0	3	0	0	28
20263.747595749337	20267.497595749337	5.35	5.348834625663585	20275.097524916335	20269.097595749336	20269.096430375	20269.097595749336	20269.108265959	20275.097595749336	20275.109278792	6				40	615.19	-0.6	-0.4999		3		0	3	0	0	28
20263.747595749337	20268.247595749337	5.35	5.348834625663585	20275.097524916335	20269.097595749336	20269.096430375	20269.097595749336	20269.108265959	20275.097595749336	20275.109278792	6				40	619.89	-0.6	-0.4999		3		0	3	0	0	28
20263.747595749337	20268.997595749337	5.35	5.348834625663585	20275.097524916335	20269.097595749336	20269.096430375	20269.097595749336	20269.108265959	20275.097595749336	20275.109278792	6				40	616.2	-0.6	-0.4999		3		0	3	0	0	28
20275.115024791336	20275.115024791336	5.35	5.347865917665331	20286.464954041337	20280.465024791334	20280.462890709	20280.465024791334	20280.475579542	20286.465024791334	20286.475732334	6				40	614.34	-0.6	-0.4999		3		0	2	0	0	29
20275.115024791336	20275.865024791336	5.35	5.347865917665331	20286.464954041337	20280.465024791334	20280.462890709	20280.465024791334	20280.475579542	20286.465024791334	20286.475732334	6				40	614.25	-0.6	-0.4999		3		0	2	0	0	29
20275.115024791336	20276.615024791336	5.35	5.347865917665331	20286.464954041337	20280.465024791334	20280.462890709	20280.465024791334	20280.475579542	20286.465024791334	20286.475732334	6				40	650.02	-0.6	-0.4999		3		0	2	1	0	29
20275.115024791336	20277.365024791336	5.35	5.347865917665331	20286.464954041337	20280.465024791334	20280.462890709	20280.465024791334	20280.475579542	20286.465024791334	20286.475732334	6				40	617.83	-0.6	-0.4999		3		0	2	0	0	29
20275.115024791336	20278.115024791336	5.35	5.347865917665331	20286.464954041337	20280.465024791334	20280.462890709	20280.465024791334	20280.475579542	20286.465024791334	20286.475732334	6				40	618.32	-0.6	-0.4999		3		0	2	0	0	29
20275.115024791336	20278.865024791336	5.35	5.347865917665331	20286.464954041337	20280.465024791334	20280.462890709	20280.465024791334	20280.475579542	20286.465024791334	20286.475732334	6				40	626.69	-0.6	-0.4999		3		0	2	0	0	29
20275.115024791336	20279.615024791336	5.35	5.347865917665331	20286.464954041337	20280.465024791334	20280.462890709	20280.465024791334	20280.475579542	20286.465024791334	20286.475732334	6				40	620.43	-0.6	-0.4999		3		0	2	0	0	29
20275.115024791336	20280.365024791336	5.35	5.347865917665331	20286.464954041337	20280.465024791334	20280.462890709	20280.465024791334	20280.475579542	20286.465024791334	20286.475732334	6				40	621.85	-0.6	-0.4999		3		0	2	0	0	29
20286.482141416338	20286.482141416338	5.35	5.347272292663547	20297.832071041335	20291.832141416337	20291.829413709	20291.832141416337	20291.842289	20297.832141416337	20297.84219425	6				40	620.43	-0.6	-0.4999		3		0	3	0	0	30
20286.482141416338	20287.232141416338	5.35	5.347272292663547	20297.832071041335	20291.832141416337	20291.829413709	20291.832141416337	20291.842289	20297.832141416337	20297.84219425	6				40	620.23	-0.6	-0.4999		3		0	3	0	0	30
20286.482141416338	20287.982141416338	5.35	5.347272292663547	20297.832071041335	20291.832141416337	20291.829413709	20291.832141416337	20291.842289	20297.832141416337	20297.84219425	6				40	621.37	-0.6	-0.4999		3		0	3	0	0	30
20286.482141416338	20288.732141416338	5.35	5.347272292663547	20297.832071041335	20291.832141416337	20291.829413709	20291.832141416337	20291.842289	20297.832141416337	20297.84219425	6				40	665.59	-0.6	-0.4999		3		0	3	1	0	30
20286.482141416338	20289.482141416338	5.35	5.347272292663547	20297.832071041335	20291.832141416337	20291.829413709	20291.832141416337	20291.842289	20297.832141416337	20297.84219425	6				40	623.56	-0.6	-0.4999		3		0	3	0	0	30
20286.482141416338	20290.232141416338	5.35	5.347272292663547	20297.832071041335	20291.832141416337	20291.829413709	20291.832141416337	20291.842289	20297.832141416337	20297.84219425	6				40	617.57	-0.6	-0.4999		3		0	3	0	0	30
20286.482141416338	20290.982141416338	5.35	5.347272292663547	20297.832071041335	20291.832141416337	20291.829413709	20291.832141416337	20291.842289	20297.832141416337	20297.84219425	6				40	620.83	-0.6	-0.4999		3		0	3	0	0	30
20286.482141416338	20291.732141416338	5.35	5.347272292663547	20297.832071041335	20291.832141416337	20291.829413709	20291.832141416337	20291.842289	20297.832141416337	20297.84219425	6				40	620.29	-0.6	-0.4999		3		0	3	0	0	30
20297.849570958337	20297.849570958337	5.35	5.34811966666166	20309.199501124338	20303.199570958335	20303.197690625	20303.199570958335	20303.208772	20309.199570958335	20309.208951417	6				40	623.0	-0.6	-0.4999		3		0	2	0	0	31
20297.849570958337	20298.599570958337	5.35	5.34811966666166	20309.199501124338	20303.199570958335	20303.197690625	20303.199570958335	20303.208772	20309.199570958335	20309.208951417	6				40	627.8	-0.6	-0.4999		3		0	2	0	0	31
20297.849570958337	20299.349570958337	5.35	5.34811966666166	20309.199501124338	20303.199570958335	20303.197690625	20303.199570958335	20303.208772	20309.199570958335	20309.208951417	6				40	655.53	-0.6	-0.4999		3		0	2	1	0	31
20297.849570958337	20300.099570958337	5.35	5.34811966666166	20309.199501124338	20303.199570958335	20303.197690625	20303.199570958335	20303.208772	20309.199570958335	20309.208951417	6				40	633.48	-0.6	-0.4999		3		0	2	0	0	31
20297.849570958337	20300.849570958337	5.35	5.34811966666166	20309.199501124338	20303.199570958335	20303.197690625	20303.199570958335	20303.208772	20309.199570958335	20309.208951417	6				40	627.14	-0.6	-0.4999		3		0	2	0	0	31
20297.849570958337	20301.599570958337	5.35	5.34811966666166	20309.199501124338	20303.199570958335	20303.197690625	20303.199570958335	20303.208772	20309.199570958335	20309.208951417	6				40	625.87	-0.6	-0.4999		3		0	2	0	0	31
20297.849570958337	20302.349570958337	5.35	5.34811966666166	20309.199501124338	20303.199570958335	20303.197690625	20303.199570958335	20303.208772	20309.199570958335	20309.208951417	6				40	629.44	-0.6	-0.4999		3		0	2	0	0	31
20297.849570958337	20303.099570958337	5.35	5.34811966666166	20309.199501124338	20303.199570958335	20303.197690625	20303.199570958335	20303.208772	20309.199570958335	20309.208951417	6				40	626.73	-0.6	-0.4999		3		0	2	0	0	31
20309.215438541338	20309.215438541338	5.35	5.34808954266191	20320.565369166336	20314.565438541336	20314.563528084	20314.565438541336	20314.574232334	20320.565438541336	20320.575501375	6				40	628.53	-0.6	-0.4999		3		1	4	0	0	32
20309.215438541338	20309.965438541338	5.35	5.34808954266191	20320.565369166336	20314.565438541336	20314.563528084	20314.565438541336	20314.574232334	20320.565438541336	20320.575501375	6				40	631.02	-0.6	-0.4999		3		1	4	0	0	32
20309.215438541338	20310.715438541338	5.35	5.34808954266191	20320.565369166336	20314.565438541336	20314.563528084	20314.565438541336	20314.574232334	20320.565438541336	20320.575501375	6				40	630.22	-0.6	-0.4999		3		1	4	0	0	32
20309.215438541338	20311.465438541338	5.35	5.34808954266191	20320.565369166336	20314.565438541336	20314.563528084	20314.565438541336	20314.574232334	20320.565438541336	20320.575501375	6				40	636.35	-0.6	-0.4999		3		1	4	0	0	32
20309.215438541338	20312.215438541338	5.35	5.34808954266191	20320.565369166336	20314.565438541336	20314.563528084	20314.565438541336	20314.574232334	20320.565438541336	20320.575501375	6				40	668.58	-0.6	-0.4999		3		1	4	1	0	32
20309.215438541338	20312.965438541338	5.35	5.34808954266191	20320.565369166336	20314.565438541336	20314.563528084	20314.565438541336	20314.574232334	20320.565438541336	20320.575501375	6				40	636.89	-0.6	-0.4999		3		1	4	0	0	32
20309.215438541338	20313.715438541338	5.35	5.34808954266191	20320.565369166336	20314.565438541336	20314.563528084	20314.565438541336	20314.574232334	20320.565438541336	20320.575501375	6				40	633.68	-0.6	-0.4999		3		1	4	0	0	32
20309.215438541338	20314.465438541338	5.35	5.34808954266191	20320.565369166336	20314.565438541336	20314.563528084	20314.565438541336	20314.574232334	20320.565438541336	20320.575501375	6				40	643.72	-0.6	-0.4999		3		1	4	0	0	32
20320.580994041335	20320.580994041335	5.35	5.347092167667142	20331.930923249336	20325.930994041333	20325.928086209	20325.930994041333	20325.940950959	20331.930994041333	20331.931696875	6				40	639.37	-0.6	-0.4999		3		1	4	0	0	33
20320.580994041335	20321.330994041335	5.35	5.347092167667142	20331.930923249336	20325.930994041333	20325.928086209	20325.930994041333	20325.940950959	20331.930994041333	20331.931696875	6				40	637.55	-0.6	-0.4999		3		1	4	0	0	33
20320.580994041335	20322.080994041335	5.35	5.347092167667142	20331.930923249336	20325.930994041333	20325.928086209	20325.930994041333	20325.940950959	20331.930994041333	20331.931696875	6				40	638.77	-0.6	-0.4999		3		1	4	0	0	33
20320.580994041335	20322.830994041335	5.35	5.347092167667142	20331.930923249336	20325.930994041333	20325.928086209	20325.930994041333	20325.940950959	20331.930994041333	20331.931696875	6				40	638.31	-0.6	-0.4999		3		1	4	0	0	33
20320.580994041335	20323.580994041335	5.35	5.347092167667142	20331.930923249336	20325.930994041333	20325.928086209	20325.930994041333	20325.940950959	20331.930994041333	20331.931696875	6				40	663.43	-0.6	-0.4999		3		1	4	1	0	33
20320.580994041335	20324.330994041335	5.35	5.347092167667142	20331.930923249336	20325.930994041333	20325.928086209	20325.930994041333	20325.940950959	20331.930994041333	20331.931696875	6				40	646.63	-0.6	-0.4999		3		1	4	0	0	33
20320.580994041335	20325.080994041335	5.35	5.347092167667142	20331.930923249336	20325.930994041333	20325.928086209	20325.930994041333	20325.940950959	20331.930994041333	20331.931696875	6				40	638.73	-0.6	-0.4999		3		1	4	0	0	33
20320.580994041335	20325.830994041335	5.35	5.347092167667142	20331.930923249336	20325.930994041333	20325.928086209	20325.930994041333	20325.940950959	20331.930994041333	20331.931696875	6				40	635.55	-0.6	-0.4999		3		1	4	0	0	33
20331.937798208335	20331.937798208335	5.35	5.339947333664895	20343.287728208335	20337.287798208334	20337.277745542	20337.287798208334	20337.29092175	20343.287798208334	20343.292130209	6				40	634.48	-0.6	-0.4999		3		1	5	0	0	34
20331.937798208335	20332.687798208335	5.35	5.339947333664895	20343.287728208335	20337.287798208334	20337.277745542	20337.287798208334	20337.29092175	20343.287798208334	20343.292130209	6				40	637.18	-0.6	-0.4999		3		1	5	0	0	34
20331.937798208335	20333.437798208335	5.35	5.339947333664895	20343.287728208335	20337.287798208334	20337.277745542	20337.287798208334	20337.29092175	20343.287798208334	20343.292130209	6				40	641.6	-0.6	-0.4999		3		1	5	0	0	34
20331.937798208335	20334.187798208335	5.35	5.339947333664895	20343.287728208335	20337.287798208334	20337.277745542	20337.287798208334	20337.29092175	20343.287798208334	20343.292130209	6				40	644.38	-0.6	-0.4999		3		1	5	0	0	34
20331.937798208335	20334.937798208335	5.35	5.339947333664895	20343.287728208335	20337.287798208334	20337.277745542	20337.287798208334	20337.29092175	20343.287798208334	20343.292130209	6				40	639.8	-0.6	-0.4999		3		1	5	0	0	34
20331.937798208335	20335.687798208335	5.35	5.339947333664895	20343.287728208335	20337.287798208334	20337.277745542	20337.287798208334	20337.29092175	20343.287798208334	20343.292130209	6				40	671.0	-0.6	-0.4999		3		1	5	1	0	34
20331.937798208335	20336.437798208335	5.35	5.339947333664895	20343.287728208335	20337.287798208334	20337.277745542	20337.287798208334	20337.29092175	20343.287798208334	20343.292130209	6				40	638.91	-0.6	-0.4999		3		1	5	0	0	34
20331.937798208335	20337.187798208335	5.35	5.339947333664895	20343.287728208335	20337.287798208334	20337.277745542	20337.287798208334	20337.29092175	20343.287798208334	20343.292130209	6				40	649.17	-0.6	-0.4999		3		1	5	0	0	34
20343.299290624338	20343.299290624338	5.35	5.34785291766093	20354.649220708336	20348.649290624337	20348.647143542	20348.649290624337	20348.657467334	20354.649290624337	20354.658829334	6				40	644.39	-0.6	-0.4999		3		1	6	0	0	35
20343.299290624338	20344.049290624338	5.35	5.34785291766093	20354.649220708336	20348.649290624337	20348.647143542	20348.649290624337	20348.657467334	20354.649290624337	20354.658829334	6				40	641.77	-0.6	-0.4999		3		1	6	0	0	35
20343.299290624338	20344.799290624338	5.35	5.34785291766093	20354.649220708336	20348.649290624337	20348.647143542	20348.649290624337	20348.657467334	20354.649290624337	20354.658829334	6				40	641.97	-0.6	-0.4999		3		1	6	0	0	35
20343.299290624338	20345.549290624338	5.35	5.34785291766093	20354.649220708336	20348.649290624337	20348.647143542	20348.649290624337	20348.657467334	20354.649290624337	20354.658829334	6				40	633.38	-0.6	-0.4999		3		1	6	0	0	35
20343.299290624338	20346.299290624338	5.35	5.34785291766093	20354.649220708336	20348.649290624337	20348.647143542	20348.649290624337	20348.657467334	20354.649290624337	20354.658829334	6				40	630.3	-0.6	-0.4999		3		1	6	0	0	35
20343.299290624338	20347.049290624338	5.35	5.34785291766093	20354.649220708336	20348.649290624337	20348.647143542	20348.649290624337	20348.657467334	20354.649290624337	20354.658829334	6				40	637.55	-0.6	-0.4999		3		1	6	0	0	35
20343.299290624338	20347.799290624338	5.35	5.34785291766093	20354.649220708336	20348.649290624337	20348.647143542	20348.649290624337	20348.657467334	20354.649290624337	20354.658829334	6				40	675.59	-0.6	-0.4999		3		1	6	1	0	35
20343.299290624338	20348.549290624338	5.35	5.34785291766093	20354.649220708336	20348.649290624337	20348.647143542	20348.649290624337	20348.657467334	20354.649290624337	20354.658829334	6				40	632.07	-0.6	-0.4999		3		1	6	0	0	35
20354.665158083335	20354.665158083335	5.35	5.347698166664486	20366.015087291336	20360.015158083334	20360.01285625	20360.015158083334	20360.024691084	20366.015158083334	20366.015248875	6				40	628.09	-0.6	-0.4999		4		2	0	0	0	36
20354.665158083335	20355.415158083335	5.35	5.347698166664486	20366.015087291336	20360.015158083334	20360.01285625	20360.015158083334	20360.024691084	20366.015158083334	20366.015248875	6				40	627.84	-0.6	-0.4999		4		2	0	0	0	36
20354.665158083335	20356.165158083335	5.35	5.347698166664486	20366.015087291336	20360.015158083334	20360.01285625	20360.015158083334	20360.024691084	20366.015158083334	20366.015248875	6				40	622.22	-0.6	-0.4999		4		2	0	0	0	36
20354.665158083335	20356.915158083335	5.35	5.347698166664486	20366.015087291336	20360.015158083334	20360.01285625	20360.015158083334	20360.024691084	20366.015158083334	20366.015248875	6				40	621.23	-0.6	-0.4999		4		2	0	0	0	36
20354.665158083335	20357.665158083335	5.35	5.347698166664486	20366.015087291336	20360.015158083334	20360.01285625	20360.015158083334	20360.024691084	20366.015158083334	20366.015248875	6				40	626.28	-0.6	-0.4999		4		2	0	0	0	36
20354.665158083335	20358.415158083335	5.35	5.347698166664486	20366.015087291336	20360.015158083334	20360.01285625	20360.015158083334	20360.024691084	20366.015158083334	20366.015248875	6				40	622.39	-0.6	-0.4999		4		2	0	0	0	36
20354.665158083335	20359.165158083335	5.35	5.347698166664486	20366.015087291336	20360.015158083334	20360.01285625	20360.015158083334	20360.024691084	20366.015158083334	20366.015248875	6				40	621.14	-0.6	-0.4999		4		2	0	0	0	36
20354.665158083335	20359.915158083335	5.35	5.347698166664486	20366.015087291336	20360.015158083334	20360.01285625	20360.015158083334	20360.024691084	20366.015158083334	20366.015248875	6				40	619.71	-0.6	-0.4999		4		2	0	0	0	36
20366.021649749335	20366.021649749335	5.35	5.340688042666443	20377.371579499337	20371.371649749333	20371.362337792	20371.371649749333	20371.374148667	20377.371649749333	20377.374613042	6				40	621.51	-0.6	-0.4999		3		0	3	0	0	37
20366.021649749335	20366.771649749335	5.35	5.340688042666443	20377.371579499337	20371.371649749333	20371.362337792	20371.371649749333	20371.374148667	20377.371649749333	20377.374613042	6				40	623.94	-0.6	-0.4999		3		0	3	0	0	37
20366.021649749335	20367.521649749335	5.35	5.340688042666443	20377.371579499337	20371.371649749333	20371.362337792	20371.371649749333	20371.374148667	20377.371649749333	20377.374613042	6				40	622.85	-0.6	-0.4999		3		0	3	0	0	37
20366.021649749335	20368.271649749335	5.35	5.340688042666443	20377.371579499337	20371.371649749333	20371.362337792	20371.371649749333	20371.374148667	20377.371649749333	20377.374613042	6				40	677.43	-0.6	-0.4999		3		0	3	1	0	37
20366.021649749335	20369.021649749335	5.35	5.340688042666443	20377.371579499337	20371.371649749333	20371.362337792	20371.371649749333	20371.374148667	20377.371649749333	20377.374613042	6				40	623.14	-0.6	-0.4999		3		0	3	0	0	37
20366.021649749335	20369.771649749335	5.35	5.340688042666443	20377.371579499337	20371.371649749333	20371.362337792	20371.371649749333	20371.374148667	20377.371649749333	20377.374613042	6				40	626.81	-0.6	-0.4999		3		0	3	0	0	37
20366.021649749335	20370.521649749335	5.35	5.340688042666443	20377.371579499337	20371.371649749333	20371.362337792	20371.371649749333	20371.374148667	20377.371649749333	20377.374613042	6				40	621.83	-0.6	-0.4999		3		0	3	0	0	37
20366.021649749335	20371.271649749335	5.35	5.340688042666443	20377.371579499337	20371.371649749333	20371.362337792	20371.371649749333	20371.374148667	20377.371649749333	20377.374613042	6				40	626.63	-0.6	-0.4999		3		0	3	0	0	37
20377.381891916335	20377.381891916335	5.35	5.3495222506644495	20388.731823499336	20382.731891916334	20382.731414167	20382.731891916334	20382.742042417	20388.731891916334	20388.742104459	6				40	628.53	-0.6	-0.4999		3		0	3	0	0	38
20377.381891916335	20378.131891916335	5.35	5.3495222506644495	20388.731823499336	20382.731891916334	20382.731414167	20382.731891916334	20382.742042417	20388.731891916334	20388.742104459	6				40	631.44	-0.6	-0.4999		3		0	3	0	0	38
20377.381891916335	20378.881891916335	5.35	5.3495222506644495	20388.731823499336	20382.731891916334	20382.731414167	20382.731891916334	20382.742042417	20388.731891916334	20388.742104459	6				40	621.63	-0.6	-0.4999		3		0	3	0	0	38
20377.381891916335	20379.631891916335	5.35	5.3495222506644495	20388.731823499336	20382.731891916334	20382.731414167	20382.731891916334	20382.742042417	20388.731891916334	20388.742104459	6				40	661.07	-0.6	-0.4999		3		0	3	1	0	38
20377.381891916335	20380.381891916335	5.35	5.3495222506644495	20388.731823499336	20382.731891916334	20382.731414167	20382.731891916334	20382.742042417	20388.731891916334	20388.742104459	6				40	624.34	-0.6	-0.4999		3		0	3	0	0	38
20377.381891916335	20381.131891916335	5.35	5.3495222506644495	20388.731823499336	20382.731891916334	20382.731414167	20382.731891916334	20382.742042417	20388.731891916334	20388.742104459	6				40	621.37	-0.6	-0.4999		3		0	3	0	0	38
20377.381891916335	20381.881891916335	5.35	5.3495222506644495	20388.731823499336	20382.731891916334	20382.731414167	20382.731891916334	20382.742042417	20388.731891916334	20388.742104459	6				40	624.32	-0.6	-0.4999		3		0	3	0	0	38
20377.381891916335	20382.631891916335	5.35	5.3495222506644495	20388.731823499336	20382.731891916334	20382.731414167	20382.731891916334	20382.742042417	20388.731891916334	20388.742104459	6				40	618.62	-0.6	-0.4999		3		0	3	0	0	38
20388.749323416338	20388.749323416338	5.35	5.345997958662338	20400.099254124336	20394.099323416336	20394.095321375	20394.099323416336	20394.108553167	20400.099323416336	20400.108149667	6				40	621.82	-0.6	-0.4999		3		0	4	0	0	39
20388.749323416338	20389.499323416338	5.35	5.345997958662338	20400.099254124336	20394.099323416336	20394.095321375	20394.099323416336	20394.108553167	20400.099323416336	20400.108149667	6				40	616.72	-0.6	-0.4999		3		0	4	0	0	39
20388.749323416338	20390.249323416338	5.35	5.345997958662338	20400.099254124336	20394.099323416336	20394.095321375	20394.099323416336	20394.108553167	20400.099323416336	20400.108149667	6				40	616.82	-0.6	-0.4999		3		0	4	0	0	39
20388.749323416338	20390.999323416338	5.35	5.345997958662338	20400.099254124336	20394.099323416336	20394.095321375	20394.099323416336	20394.108553167	20400.099323416336	20400.108149667	6				40	618.23	-0.6	-0.4999		3		0	4	0	0	39
20388.749323416338	20391.749323416338	5.35	5.345997958662338	20400.099254124336	20394.099323416336	20394.095321375	20394.099323416336	20394.108553167	20400.099323416336	20400.108149667	6				40	655.92	-0.6	-0.4999		3		0	4	1	0	39
20388.749323416338	20392.499323416338	5.35	5.345997958662338	20400.099254124336	20394.099323416336	20394.095321375	20394.099323416336	20394.108553167	20400.099323416336	20400.108149667	6				40	614.02	-0.6	-0.4999		3		0	4	0	0	39
20388.749323416338	20393.249323416338	5.35	5.345997958662338	20400.099254124336	20394.099323416336	20394.095321375	20394.099323416336	20394.108553167	20400.099323416336	20400.108149667	6				40	607.09	-0.6	-0.4999		3		0	4	0	0	39
20388.749323416338	20393.999323416338	5.35	5.345997958662338	20400.099254124336	20394.099323416336	20394.095321375	20394.099323416336	20394.108553167	20400.099323416336	20400.108149667	6				40	609.09	-0.6	-0.4999		3		0	4	0	0	39
20400.113629041338	20400.113629041338	5.35	5.349839750662795	20411.463559124335	20405.463629041336	20405.463468792	20405.463629041336	20405.475316584	20411.463629041336	20411.464222209	6				40	609.94	-0.6	-0.4999		3		0	2	0	0	40
20400.113629041338	20400.863629041338	5.35	5.349839750662795	20411.463559124335	20405.463629041336	20405.463468792	20405.463629041336	20405.475316584	20411.463629041336	20411.464222209	6				40	608.38	-0.6	-0.4999		3		0	2	0	0	40
20400.113629041338	20401.613629041338	5.35	5.349839750662795	20411.463559124335	20405.463629041336	20405.463468792	20405.463629041336	20405.475316584	20411.463629041336	20411.464222209	6				40	659.92	-0.6	-0.4999		3		0	2	1	0	40
20400.113629041338	20402.363629041338	5.35	5.349839750662795	20411.463559124335	20405.463629041336	20405.463468792	20405.463629041336	20405.475316584	20411.463629041336	20411.464222209	6				40	612.91	-0.6	-0.4999		3		0	2	0	0	40
20400.113629041338	20403.113629041338	5.35	5.349839750662795	20411.463559124335	20405.463629041336	20405.463468792	20405.463629041336	20405.475316584	20411.463629041336	20411.464222209	6				40	614.2	-0.6	-0.4999		3		0	2	0	0	40
20400.113629041338	20403.863629041338	5.35	5.349839750662795	20411.463559124335	20405.463629041336	20405.463468792	20405.463629041336	20405.475316584	20411.463629041336	20411.464222209	6				40	613.34	-0.6	-0.4999		3		0	2	0	0	40
20400.113629041338	20404.613629041338	5.35	5.349839750662795	20411.463559124335	20405.463629041336	20405.463468792	20405.463629041336	20405.475316584	20411.463629041336	20411.464222209	6				40	609.49	-0.6	-0.4999		3		0	2	0	0	40
20400.113629041338	20405.363629041338	5.35	5.349839750662795	20411.463559124335	20405.463629041336	20405.463468792	20405.463629041336	20405.475316584	20411.463629041336	20411.464222209	6				40	608.28	-0.6	-0.4999		3		0	2	0	0	40
20411.470434083338	20411.470434083338	5.35	5.342771458661446	20422.820365374337	20416.820434083336	20416.813205542	20416.820434083336	20416.824963542	20422.820434083336	20422.824990417	6				40	606.81	-0.6	-0.4999		3		0	2	0	0	41
20411.470434083338	20412.220434083338	5.35	5.342771458661446	20422.820365374337	20416.820434083336	20416.813205542	20416.820434083336	20416.824963542	20422.820434083336	20422.824990417	6				40	606.22	-0.6	-0.4999		3		0	2	0	0	41
20411.470434083338	20412.970434083338	5.35	5.342771458661446	20422.820365374337	20416.820434083336	20416.813205542	20416.820434083336	20416.824963542	20422.820434083336	20422.824990417	6				40	660.04	-0.6	-0.4999		3		0	2	1	0	41
20411.470434083338	20413.720434083338	5.35	5.342771458661446	20422.820365374337	20416.820434083336	20416.813205542	20416.820434083336	20416.824963542	20422.820434083336	20422.824990417	6				40	602.36	-0.6	-0.4999		3		0	2	0	0	41
20411.470434083338	20414.470434083338	5.35	5.342771458661446	20422.820365374337	20416.820434083336	20416.813205542	20416.820434083336	20416.824963542	20422.820434083336	20422.824990417	6				40	602.67	-0.6	-0.4999		3		0	2	0	0	41
20411.470434083338	20415.220434083338	5.35	5.342771458661446	20422.820365374337	20416.820434083336	20416.813205542	20416.820434083336	20416.824963542	20422.820434083336	20422.824990417	6				40	606.08	-0.6	-0.4999		3		0	2	0	0	41
20411.470434083338	20415.970434083338	5.35	5.342771458661446	20422.820365374337	20416.820434083336	20416.813205542	20416.820434083336	20416.824963542	20422.820434083336	20422.824990417	6				40	609.89	-0.6	-0.4999		3		0	2	0	0	41
20411.470434083338	20416.720434083338	5.35	5.342771458661446	20422.820365374337	20416.820434083336	20416.813205542	20416.820434083336	20416.824963542	20422.820434083336	20422.824990417	6				40	604.27	-0.6	-0.4999		3		0	2	0	0	41
20422.831302791335	20422.831302791335	5.35	5.346860167665	20434.181233958338	20428.181302791334	20428.178162959	20428.181302791334	20428.191569792	20434.181302791334	20434.191678	6				40	603.3	-0.6	-0.4999		3		0	2	0	0	42
20422.831302791335	20423.581302791335	5.35	5.346860167665	20434.181233958338	20428.181302791334	20428.178162959	20428.181302791334	20428.191569792	20434.181302791334	20434.191678	6				40	601.09	-0.6	-0.4999		3		0	2	0	0	42
20422.831302791335	20424.331302791335	5.35	5.346860167665	20434.181233958338	20428.181302791334	20428.178162959	20428.181302791334	20428.191569792	20434.181302791334	20434.191678	6				40	673.79	-0.6	-0.4999		3		0	2	1	0	42
20422.831302791335	20425.081302791335	5.35	5.346860167665	20434.181233958338	20428.181302791334	20428.178162959	20428.181302791334	20428.191569792	20434.181302791334	20434.191678	6				40	606.31	-0.6	-0.4999		3		0	2	0	0	42
20422.831302791335	20425.831302791335	5.35	5.346860167665	20434.181233958338	20428.181302791334	20428.178162959	20428.181302791334	20428.191569792	20434.181302791334	20434.191678	6				40	614.35	-0.6	-0.4999		3		0	2	0	0	42
20422.831302791335	20426.581302791335	5.35	5.346860167665	20434.181233958338	20428.181302791334	20428.178162959	20428.181302791334	20428.191569792	20434.181302791334	20434.191678	6				40	607.69	-0.6	-0.4999		3		0	2	0	0	42
20422.831302791335	20427.331302791335	5.35	5.346860167665	20434.181233958338	20428.181302791334	20428.178162959	20428.181302791334	20428.191569792	20434.181302791334	20434.191678	6				40	603.14	-0.6	-0.4999		3		0	2	0	0	42
20422.831302791335	20428.081302791335	5.35	5.346860167665	20434.181233958338	20428.181302791334	20428.178162959	20428.181302791334	20428.191569792	20434.181302791334	20434.191678	6				40	607.3	-0.6	-0.4999		3		0	2	0	0	42
20434.199046374335	20434.199046374335	5.35	5.347322875666578	20445.548976666338	20439.549046374334	20439.54636925	20439.549046374334	20439.556149375	20445.549046374334	20445.55804725	6				40	610.22	-0.6	-0.4999		3		0	3	0	0	43
20434.199046374335	20434.949046374335	5.35	5.347322875666578	20445.548976666338	20439.549046374334	20439.54636925	20439.549046374334	20439.556149375	20445.549046374334	20445.55804725	6				40	611.49	-0.6	-0.4999		3		0	3	0	0	43
20434.199046374335	20435.699046374335	5.35	5.347322875666578	20445.548976666338	20439.549046374334	20439.54636925	20439.549046374334	20439.556149375	20445.549046374334	20445.55804725	6				40	614.06	-0.6	-0.4999		3		0	3	0	0	43
20434.199046374335	20436.449046374335	5.35	5.347322875666578	20445.548976666338	20439.549046374334	20439.54636925	20439.549046374334	20439.556149375	20445.549046374334	20445.55804725	6				40	645.03	-0.6	-0.4999		3		0	3	1	0	43
20434.199046374335	20437.199046374335	5.35	5.347322875666578	20445.548976666338	20439.549046374334	20439.54636925	20439.549046374334	20439.556149375	20445.549046374334	20445.55804725	6				40	605.59	-0.6	-0.4999		3		0	3	0	0	43
20434.199046374335	20437.949046374335	5.35	5.347322875666578	20445.548976666338	20439.549046374334	20439.54636925	20439.549046374334	20439.556149375	20445.549046374334	20445.55804725	6				40	612.95	-0.6	-0.4999		3		0	3	0	0	43
20434.199046374335	20438.699046374335	5.35	5.347322875666578	20445.548976666338	20439.549046374334	20439.54636925	20439.549046374334	20439.556149375	20445.549046374334	20445.55804725	6				40	605.95	-0.6	-0.4999		3		0	3	0	0	43
20434.199046374335	20439.449046374335	5.35	5.347322875666578	20445.548976666338	20439.549046374334	20439.54636925	20439.549046374334	20439.556149375	20445.549046374334	20445.55804725	6				40	603.45	-0.6	-0.4999		3		0	3	0	0	43
20445.564914083337	20445.564914083337	5.35	5.3464100006640365	20456.914845083338	20450.914914083336	20450.911324084	20450.914914083336	20450.924996042	20456.914914083336	20456.925198084	6				40	606.07	-0.6	-0.4999		3		0	4	0	0	44
20445.564914083337	20446.314914083337	5.35	5.3464100006640365	20456.914845083338	20450.914914083336	20450.911324084	20450.914914083336	20450.924996042	20456.914914083336	20456.925198084	6				40	603.74	-0.6	-0.4999		3		0	4	0	0	44
20445.564914083337	20447.064914083337	5.35	5.3464100006640365	20456.914845083338	20450.914914083336	20450.911324084	20450.914914083336	20450.924996042	20456.914914083336	20456.925198084	6				40	608.96	-0.6	-0.4999		3		0	4	0	0	44
20445.564914083337	20447.814914083337	5.35	5.3464100006640365	20456.914845083338	20450.914914083336	20450.911324084	20450.914914083336	20450.924996042	20456.914914083336	20456.925198084	6				40	605.32	-0.6	-0.4999		3		0	4	0	0	44
20445.564914083337	20448.564914083337	5.35	5.3464100006640365	20456.914845083338	20450.914914083336	20450.911324084	20450.914914083336	20450.924996042	20456.914914083336	20456.925198084	6				40	659.93	-0.6	-0.4999		3		0	4	1	0	44
20445.564914083337	20449.314914083337	5.35	5.3464100006640365	20456.914845083338	20450.914914083336	20450.911324084	20450.914914083336	20450.924996042	20456.914914083336	20456.925198084	6				40	608.67	-0.6	-0.4999		3		0	4	0	0	44
20445.564914083337	20450.064914083337	5.35	5.3464100006640365	20456.914845083338	20450.914914083336	20450.911324084	20450.914914083336	20450.924996042	20456.914914083336	20456.925198084	6				40	610.45	-0.6	-0.4999		3		0	4	0	0	44
20445.564914083337	20450.814914083337	5.35	5.3464100006640365	20456.914845083338	20450.914914083336	20450.911324084	20450.914914083336	20450.924996042	20456.914914083336	20456.925198084	6				40	607.1	-0.6	-0.4999		3		0	4	0	0	44
20456.932032499335	20456.932032499335	5.35	5.348425667663832	20468.281962666337	20462.282032499334	20462.280458167	20462.282032499334	20462.2912795	20468.282032499334	20468.291246125	6				40	605.35	-0.6	-0.4999		3		1	5	0	0	45
20456.932032499335	20457.682032499335	5.35	5.348425667663832	20468.281962666337	20462.282032499334	20462.280458167	20462.282032499334	20462.2912795	20468.282032499334	20468.291246125	6				40	602.95	-0.6	-0.4999		3		1	5	0	0	45
20456.932032499335	20458.432032499335	5.35	5.348425667663832	20468.281962666337	20462.282032499334	20462.280458167	20462.282032499334	20462.2912795	20468.282032499334	20468.291246125	6				40	602.33	-0.6	-0.4999		3		1	5	0	0	45
20456.932032499335	20459.182032499335	5.35	5.348425667663832	20468.281962666337	20462.282032499334	20462.280458167	20462.282032499334	20462.2912795	20468.282032499334	20468.291246125	6				40	610.35	-0.6	-0.4999		3		1	5	0	0	45
20456.932032499335	20459.932032499335	5.35	5.348425667663832	20468.281962666337	20462.282032499334	20462.280458167	20462.282032499334	20462.2912795	20468.282032499334	20468.291246125	6				40	613.71	-0.6	-0.4999		3		1	5	0	0	45
20456.932032499335	20460.682032499335	5.35	5.348425667663832	20468.281962666337	20462.282032499334	20462.280458167	20462.282032499334	20462.2912795	20468.282032499334	20468.291246125	6				40	674.18	-0.6	-0.4999		3		1	5	1	0	45
20456.932032499335	20461.432032499335	5.35	5.348425667663832	20468.281962666337	20462.282032499334	20462.280458167	20462.282032499334	20462.2912795	20468.282032499334	20468.291246125	6				40	605.22	-0.6	-0.4999		3		1	5	0	0	45
20456.932032499335	20462.182032499335	5.35	5.348425667663832	20468.281962666337	20462.282032499334	20462.280458167	20462.282032499334	20462.2912795	20468.282032499334	20468.291246125	6				40	610.26	-0.6	-0.4999		3		1	5	0	0	45
20468.297900083337	20468.297900083337	5.35	5.346024583664985	20479.647828708337	20473.647900083335	20473.643924667	20473.647900083335	20473.658176792	20479.647900083335	20479.65804425	6				40	612.1	-0.6	-0.4999		3		1	4	0	0	46
20468.297900083337	20469.047900083337	5.35	5.346024583664985	20479.647828708337	20473.647900083335	20473.643924667	20473.647900083335	20473.658176792	20479.647900083335	20479.65804425	6				40	613.19	-0.6	-0.4999		3		1	4	0	0	46
20468.297900083337	20469.797900083337	5.35	5.346024583664985	20479.647828708337	20473.647900083335	20473.643924667	20473.647900083335	20473.658176792	20479.647900083335	20479.65804425	6				40	621.1	-0.6	-0.4999		3		1	4	0	0	46
20468.297900083337	20470.547900083337	5.35	5.346024583664985	20479.647828708337	20473.647900083335	20473.643924667	20473.647900083335	20473.658176792	20479.647900083335	20479.65804425	6				40	622.96	-0.6	-0.4999		3		1	4	0	0	46
20468.297900083337	20471.297900083337	5.35	5.346024583664985	20479.647828708337	20473.647900083335	20473.643924667	20473.647900083335	20473.658176792	20479.647900083335	20479.65804425	6				40	693.13	-0.6	-0.4999		3		1	4	1	0	46
20468.297900083337	20472.047900083337	5.35	5.346024583664985	20479.647828708337	20473.647900083335	20473.643924667	20473.647900083335	20473.658176792	20479.647900083335	20479.65804425	6				40	618.85	-0.6	-0.4999		3		1	4	0	0	46
20468.297900083337	20472.797900083337	5.35	5.346024583664985	20479.647828708337	20473.647900083335	20473.643924667	20473.647900083335	20473.658176792	20479.647900083335	20479.65804425	6				40	623.22	-0.6	-0.4999		3		1	4	0	0	46
20468.297900083337	20473.547900083337	5.35	5.346024583664985	20479.647828708337	20473.647900083335	20473.643924667	20473.647900083335	20473.658176792	20479.647900083335	20479.65804425	6				40	623.53	-0.6	-0.4999		3		1	4	0	0	46
20479.664391083337	20479.664391083337	5.35	5.346975916661904	20491.014320458336	20485.014391083336	20485.011367	20485.014391083336	20485.024673584	20491.014391083336	20491.024413542	6				40	619.91	-0.6	-0.4999		3		1	6	0	0	47
20479.664391083337	20480.414391083337	5.35	5.346975916661904	20491.014320458336	20485.014391083336	20485.011367	20485.014391083336	20485.024673584	20491.014391083336	20491.024413542	6				40	620.71	-0.6	-0.4999		3		1	6	0	0	47
20479.664391083337	20481.164391083337	5.35	5.346975916661904	20491.014320458336	20485.014391083336	20485.011367	20485.014391083336	20485.024673584	20491.014391083336	20491.024413542	6				40	624.8	-0.6	-0.4999		3		1	6	0	0	47
20479.664391083337	20481.914391083337	5.35	5.346975916661904	20491.014320458336	20485.014391083336	20485.011367	20485.014391083336	20485.024673584	20491.014391083336	20491.024413542	6				40	622.6	-0.6	-0.4999		3		1	6	0	0	47
20479.664391083337	20482.664391083337	5.35	5.346975916661904	20491.014320458336	20485.014391083336	20485.011367	20485.014391083336	20485.024673584	20491.014391083336	20491.024413542	6				40	629.04	-0.6	-0.4999		3		1	6	0	0	47
20479.664391083337	20483.414391083337	5.35	5.346975916661904	20491.014320458336	20485.014391083336	20485.011367	20485.014391083336	20485.024673584	20491.014391083336	20491.024413542	6				40	624.12	-0.6	-0.4999		3		1	6	0	0	47
20479.664391083337	20484.164391083337	5.35	5.346975916661904	20491.014320458336	20485.014391083336	20485.011367	20485.014391083336	20485.024673584	20491.014391083336	20491.024413542	6				40	686.16	-0.6	-0.4999		3		1	6	1	0	47
20479.664391083337	20484.914391083337	5.35	5.346975916661904	20491.014320458336	20485.014391083336	20485.011367	20485.014391083336	20485.024673584	20491.014391083336	20491.024413542	6				40	627.22	-0.6	-0.4999		3		1	6	0	0	47
20491.031820374337	20491.031820374337	5.35	5.345678375662828	20502.381751041336	20496.381820374336	20496.37749875	20496.381820374336	20496.390465542	20502.381820374336	20502.390931292	6				40	627.53	-0.6	-0.4999		3		1	6	0	0	48
20491.031820374337	20491.781820374337	5.35	5.345678375662828	20502.381751041336	20496.381820374336	20496.37749875	20496.381820374336	20496.390465542	20502.381820374336	20502.390931292	6				40	624.83	-0.6	-0.4999		3		1	6	0	0	48
20491.031820374337	20492.531820374337	5.35	5.345678375662828	20502.381751041336	20496.381820374336	20496.37749875	20496.381820374336	20496.390465542	20502.381820374336	20502.390931292	6				40	624.09	-0.6	-0.4999		3		1	6	0	0	48
20491.031820374337	20493.281820374337	5.35	5.345678375662828	20502.381751041336	20496.381820374336	20496.37749875	20496.381820374336	20496.390465542	20502.381820374336	20502.390931292	6				40	615.62	-0.6	-0.4999		3		1	6	0	0	48
20491.031820374337	20494.031820374337	5.35	5.345678375662828	20502.381751041336	20496.381820374336	20496.37749875	20496.381820374336	20496.390465542	20502.381820374336	20502.390931292	6				40	613.28	-0.6	-0.4999		3		1	6	0	0	48
20491.031820374337	20494.781820374337	5.35	5.345678375662828	20502.381751041336	20496.381820374336	20496.37749875	20496.381820374336	20496.390465542	20502.381820374336	20502.390931292	6				40	610.41	-0.6	-0.4999		3		1	6	0	0	48
20491.031820374337	20495.531820374337	5.35	5.345678375662828	20502.381751041336	20496.381820374336	20496.37749875	20496.381820374336	20496.390465542	20502.381820374336	20502.390931292	6				40	669.69	-0.6	-0.4999		3		1	6	1	0	48
20491.031820374337	20496.281820374337	5.35	5.345678375662828	20502.381751041336	20496.381820374336	20496.37749875	20496.381820374336	20496.390465542	20502.381820374336	20502.390931292	6				40	608.81	-0.6	-0.4999		3		1	6	0	0	48
20502.398625958336	20502.398625958336	5.35	5.347068583665532	20513.748558291336	20507.748625958335	20507.745694542	20507.748625958335	20507.7574935	20513.748625958335	20513.756387292	6				40	609.88	-0.6	-0.4999		3		1	6	0	0	49
20502.398625958336	20503.148625958336	5.35	5.347068583665532	20513.748558291336	20507.748625958335	20507.745694542	20507.748625958335	20507.7574935	20513.748625958335	20513.756387292	6				40	610.14	-0.6	-0.4999		3		1	6	0	0	49
20502.398625958336	20503.898625958336	5.35	5.347068583665532	20513.748558291336	20507.748625958335	20507.745694542	20507.748625958335	20507.7574935	20513.748625958335	20513.756387292	6				40	595.5	-0.6	-0.4999		3		1	6	0	0	49
20502.398625958336	20504.648625958336	5.35	5.347068583665532	20513.748558291336	20507.748625958335	20507.745694542	20507.748625958335	20507.7574935	20513.748625958335	20513.756387292	6				40	610.96	-0.6	-0.4999		3		1	6	0	0	49
20502.398625958336	20505.398625958336	5.35	5.347068583665532	20513.748558291336	20507.748625958335	20507.745694542	20507.748625958335	20507.7574935	20513.748625958335	20513.756387292	6				40	606.88	-0.6	-0.4999		3		1	6	0	0	49
20502.398625958336	20506.148625958336	5.35	5.347068583665532	20513.748558291336	20507.748625958335	20507.745694542	20507.748625958335	20507.7574935	20513.748625958335	20513.756387292	6				40	596.66	-0.6	-0.4999		3		1	6	0	0	49
20502.398625958336	20506.898625958336	5.35	5.347068583665532	20513.748558291336	20507.748625958335	20507.745694542	20507.748625958335	20507.7574935	20513.748625958335	20513.756387292	6				40	658.66	-0.6	-0.4999		3		1	6	1	0	49
20502.398625958336	20507.648625958336	5.35	5.347068583665532	20513.748558291336	20507.748625958335	20507.745694542	20507.748625958335	20507.7574935	20513.748625958335	20513.756387292	6				40	606.3	-0.6	-0.4999		3		1	6	0	0	49
20513.762620708338	20513.762620708338	5.35	5.344523958661739	20525.11255408334	20519.112620708336	20519.107144667	20519.112620708336	20519.113402584	20525.112620708336	20525.124301375	6				40	608.96	-0.6	-0.4999		3		1	5	0	0	50
20513.762620708338	20514.512620708338	5.35	5.344523958661739	20525.11255408334	20519.112620708336	20519.107144667	20519.112620708336	20519.113402584	20525.112620708336	20525.124301375	6				40	601.05	-0.6	-0.4999		3		1	5	0	0	50
20513.762620708338	20515.262620708338	5.35	5.344523958661739	20525.11255408334	20519.112620708336	20519.107144667	20519.112620708336	20519.113402584	20525.112620708336	20525.124301375	6				40	598.94	-0.6	-0.4999		3		1	5	0	0	50
20513.762620708338	20516.012620708338	5.35	5.344523958661739	20525.11255408334	20519.112620708336	20519.107144667	20519.112620708336	20519.113402584	20525.112620708336	20525.124301375	6				40	599.64	-0.6	-0.4999		3		1	5	0	0	50
20513.762620708338	20516.762620708338	5.35	5.344523958661739	20525.11255408334	20519.112620708336	20519.107144667	20519.112620708336	20519.113402584	20525.112620708336	20525.124301375	6				40	599.78	-0.6	-0.4999		3		1	5	0	0	50
20513.762620708338	20517.512620708338	5.35	5.344523958661739	20525.11255408334	20519.112620708336	20519.107144667	20519.112620708336	20519.113402584	20525.112620708336	20525.124301375	6				40	646.41	-0.6	-0.4999		3		1	5	1	0	50
20513.762620708338	20518.262620708338	5.35	5.344523958661739	20525.11255408334	20519.112620708336	20519.107144667	20519.112620708336	20519.113402584	20525.112620708336	20525.124301375	6				40	591.12	-0.6	-0.4999		3		1	5	0	0	50
20513.762620708338	20519.012620708338	5.35	5.344523958661739	20525.11255408334	20519.112620708336	20519.107144667	20519.112620708336	20519.113402584	20525.112620708336	20525.124301375	6				40	599.76	-0.6	-0.4999		3		1	5	0	0	50
20525.131616458337	20525.131616458337	5.35	5.347339833664591	20536.481550374338	20530.481616458335	20530.478956292	20530.481616458335	20530.491038917	20536.481616458335	20536.491046584	6				40	597.8	-0.6	-0.4999		3		1	6	0	0	51
20525.131616458337	20525.881616458337	5.35	5.347339833664591	20536.481550374338	20530.481616458335	20530.478956292	20530.481616458335	20530.491038917	20536.481616458335	20536.491046584	6				40	609.08	-0.6	-0.4999		3		1	6	0	0	51
20525.131616458337	20526.631616458337	5.35	5.347339833664591	20536.481550374338	20530.481616458335	20530.478956292	20530.481616458335	20530.491038917	20536.481616458335	20536.491046584	6				40	603.24	-0.6	-0.4999		3		1	6	0	0	51
20525.131616458337	20527.381616458337	5.35	5.347339833664591	20536.481550374338	20530.481616458335	20530.478956292	20530.481616458335	20530.491038917	20536.481616458335	20536.491046584	6				40	610.91	-0.6	-0.4999		3		1	6	0	0	51
20525.131616458337	20528.131616458337	5.35	5.347339833664591	20536.481550374338	20530.481616458335	20530.478956292	20530.481616458335	20530.491038917	20536.481616458335	20536.491046584	6				40	607.45	-0.6	-0.4999		3		1	6	0	0	51
20525.131616458337	20528.881616458337	5.35	5.347339833664591	20536.481550374338	20530.481616458335	20530.478956292	20530.481616458335	20530.491038917	20536.481616458335	20536.491046584	6				40	607.75	-0.6	-0.4999		3		1	6	0	0	51
20525.131616458337	20529.631616458337	5.35	5.347339833664591	20536.481550374338	20530.481616458335	20530.478956292	20530.481616458335	20530.491038917	20536.481616458335	20536.491046584	6				40	635.61	-0.6	-0.4999		3		1	6	1	0	51
20525.131616458337	20530.381616458337	5.35	5.347339833664591	20536.481550374338	20530.481616458335	20530.478956292	20530.481616458335	20530.491038917	20536.481616458335	20536.491046584	6				40	612.99	-0.6	-0.4999		3		1	6	0	0	51
